ACCELEROMETER_X,ACCELEROMETER_Y,ACCELEROMETER_Z,GRAVITY X (m/s²),GRAVITY Y (m/s²),GRAVITY Z (m/s²),LINEAR_X,LINEAR_Y,LINEAR_Z,GYROSCOPE X (rad/s),GYROSCOPE Y (rad/s),GYROSCOPE Z (rad/s),LIGHT (lux),MAGNETIC FIELD X (μT),MAGNETIC FIELD Y (μT),MAGNETIC FIELD Z (μT),ORIENTATION Z (azimuth °),ORIENTATION X (pitch °),ORIENTATION Y (roll °),PROXIMITY (m),SOUND LEVEL (dB),LOCATION Latitude : ,LOCATION Longitude : ,LOCATION Altitude ( m),LOCATION Altitude-google ( m),LOCATION Speed ( m/s),LOCATION Accuracy ( m),LOCATION ORIENTATION (°),Satellites in range,Time  ,Date
-0.15256,3.25604,8.96207,-0.16408,3.74924,9.06017,0.33285,0.13771,-0.34221,-0.25734,0.01878,-0.09448,4704,31.31,-24.397,-3.766,236.752,-23.299,0.834,5,46.0954,,,,NaN,,,,0 / 0,18,2018-08-09 08:42:57:902
-0.63411,3.02574,8.2849,-0.49851,3.00846,9.32046,-0.29072,0.02579,-0.4776,-0.27403,0.12263,-0.03748,6592,32.184,-23.431,-7.593,239.037,-17.865,3.062,5,59.7998,,,,NaN,,,,0 / 0,519,2018-08-09 08:42:58:403
0.02272,2.18108,9.86894,-0.6709,2.46734,9.46745,-0.09449,0.12434,0.09726,-0.3567,0.08049,0.0126,7860,33.812,-22.258,-7.286,240.716,-15.213,4.447,5,47.8153,,,,NaN,,,,0 / 0,1018,2018-08-09 08:42:58:902
1.54097,3.45525,9.63445,0.79724,1.88279,9.59114,-0.16473,1.03258,-0.51196,-0.43326,0.21121,0.70003,8096,28.337,-26.854,-13.835,230.961,-13.325,-5.278,5,58.2847,,,,NaN,,,,0 / 0,1518,2018-08-09 08:42:59:402
2.61057,-0.77347,16.77821,0.23115,1.51364,9.68637,-0.08516,-0.07779,-1.01943,-0.84335,-0.46114,-0.27957,11160,24.367,-30.45,-11.516,221.324,-10.568,0.033,5,52.4803,,,,NaN,,,,0 / 0,2018,2018-08-09 08:42:59:902
-3.50969,1.76173,8.19815,-2.35422,2.37818,9.21804,-0.59325,-0.41422,-1.0651,-0.34814,0.2108,0.08652,7864,35.364,-18.785,-2.505,244.773,-14.035,14.327,5,53.6175,,,,NaN,,,,0 / 0,2518,2018-08-09 08:43:00:402
-3.48277,2.76851,7.84102,-1.27034,1.99401,9.51738,0.39963,0.96141,-1.42077,0.19002,-0.42876,0.29259,8460,35.71,-17.822,-6.033,246.581,-12.938,8.222,5,59.0388,,,,NaN,,,,0 / 0,3018,2018-08-09 08:43:00:902
0.33678,2.20441,10.55867,0.15567,2.32273,9.52634,-0.64413,-0.017,-0.41976,-0.36546,-0.35506,-0.11261,7424,35.522,-16.49,-12.801,250.805,-13.701,-0.936,5,58.979,,,,NaN,,,,0 / 0,3518,2018-08-09 08:43:01:402
1.82631,3.08437,6.90782,1.42138,3.42181,9.07972,0.52215,-0.32488,-0.05726,0.35759,0.11205,0.06636,5832,32.605,-19.748,-12.843,245.134,-20.422,-8.897,5,58.2392,,,,NaN,,,,0 / 0,4019,2018-08-09 08:43:01:903
2.25642,3.12265,7.49167,1.88753,4.19417,8.66121,0.73767,-0.69716,0.13395,0.25659,0.44028,0.02402,3220,28.018,-26.315,-10.869,233.81,-24.825,-13.177,5,57.7674,,,,NaN,,,,0 / 0,4519,2018-08-09 08:43:02:403
1.68155,1.98187,8.43504,1.36628,3.219,9.16197,0.83995,-0.65275,-0.67755,-0.21478,0.53925,0.22151,5980,24.005,-31.403,-8.577,222.583,-20.348,-9.786,5,62.2954,,,,NaN,,,,0 / 0,5018,2018-08-09 08:43:02:902
0.48633,2.85944,7.32837,0.84633,2.69502,9.39101,0.05392,-0.35415,-1.56821,0.96744,0.22261,0.1922,9800,18.799,-34.338,-8.896,212.379,-14.196,-5.729,5,62.5411,,,,NaN,,,,0 / 0,5518,2018-08-09 08:43:03:402
1.55473,3.07181,11.35967,-0.12179,1.41057,9.70391,-2.32905,0.34347,-2.05319,0.32521,-0.97304,0.41353,10408,18.979,-33.714,-10.362,210.396,-8.27,0.719,5,60.2141,,,,NaN,,,,0 / 0,6018,2018-08-09 08:43:03:902
-1.24487,-1.18922,4.88469,-1.27906,1.80144,9.55454,0.42332,-1.49677,-2.99771,-2.03658,1.03343,1.94456,12224,6.696,-38.181,-5.943,190.264,-14.379,5.734,5,59.4724,,,,NaN,,,,0 / 0,6518,2018-08-09 08:43:04:402
-1.29213,-0.43967,12.56027,0.0179,0.33009,9.80108,-0.35643,0.20216,0.49618,-0.20256,0.01227,0.57072,15976,-5.203,-38.248,-12.669,172.449,-1.929,-0.105,5,56.1821,,,,NaN,,,,0 / 0,7019,2018-08-09 08:43:04:903
0.21953,0.48456,6.63205,1.0439,0.95527,9.70403,0.4201,-0.90528,-0.79013,-0.08162,-0.75842,-1.52982,15352,-22.504,-32.834,-8.041,144.888,-5.335,-3.351,5,53.9876,,,,NaN,,,,0 / 0,7518,2018-08-09 08:43:05:402
0.54317,-2.74934,10.98998,-0.77622,-1.41689,9.67266,0.60952,0.3423,-0.21617,0.65163,1.12933,0.00548,17300,-11.508,-34.798,-18.477,160.132,8.307,4.588,5,44.7383,,,,NaN,,,,0 / 0,8018,2018-08-09 08:43:05:902
0.9631,0.12265,8.57442,-1.326,0.00118,9.71659,2.33634,-0.02463,-1.11672,-0.02827,0.09067,0.72609,17184,-18.156,-33.636,-14.282,149.886,-0.095,7.677,5,53.9513,,,,NaN,,,,0 / 0,8518,2018-08-09 08:43:06:402
-2.94797,1.22095,4.76805,-0.08274,3.16619,9.2811,0.34988,-3.63822,2.44238,1.55692,-1.04309,-2.1427,13956,-11.658,-39.052,0.052,162.531,-12.591,1.302,5,50.853,,,,NaN,,,,0 / 0,9019,2018-08-09 08:43:06:903
-1.40102,2.43411,6.28569,0.37844,4.43141,8.74013,0.65446,-1.83571,-1.39777,0.49442,-0.81747,0.13988,10244,-1.672,-37.46,5.931,176.175,-26.575,-3.742,5,44.4108,,,,NaN,,,,0 / 0,9519,2018-08-09 08:43:07:403
1.0959,2.07938,6.68051,0.76977,2.71534,9.39174,1.99354,-0.53715,2.42248,0.48463,-0.50635,-0.51028,12520,-3.918,-40.305,-0.015,174.079,-15.306,-2.1,5,44.2431,,,,NaN,,,,0 / 0,10019,2018-08-09 08:43:07:903
0.32242,2.46523,9.08948,-1.10825,3.42835,9.12078,-1.00793,0.02603,0.71785,0.09227,-0.31575,1.34875,11344,-8.632,-39.474,5.048,167.837,-20.463,6.928,5,42.079,,,,NaN,,,,0 / 0,10519,2018-08-09 08:43:08:403
0.16211,3.13043,9.7146,-0.73744,3.26585,9.21742,1.53446,0.71304,1.71193,-0.85516,0.23564,-0.08247,11800,-6.111,-37.682,3.885,171.241,-19.775,3.597,5,43.5481,,,,NaN,,,,0 / 0,11018,2018-08-09 08:43:08:902
1.15813,3.32843,12.83724,0.14496,2.52791,9.47412,-0.36498,1.72453,1.36748,-0.29216,-0.71606,0.12419,12700,2.02,-37.459,4.433,183.237,-16.715,0.985,5,49.2941,,,,NaN,,,,0 / 0,11518,2018-08-09 08:43:09:402
-1.34538,2.12663,12.82048,-1.07939,1.33112,9.65575,-1.16295,-0.2598,5.57645,0.65549,-0.26016,-0.52739,11512,-0.943,-35.927,3.592,179.131,-7.801,6.378,5,54.8695,,,,NaN,,,,0 / 0,12019,2018-08-09 08:43:09:903
-2.01776,2.06921,12.48729,-0.62268,1.2625,9.70509,0.34675,0.96627,1.49735,-0.66132,-0.3013,-1.04927,14592,7.387,-34.459,1.503,191.846,-7.397,3.671,5,54.1443,,,,NaN,,,,0 / 0,12518,2018-08-09 08:43:10:402
0.50668,2.28876,12.10623,1.75915,1.71118,9.49461,-2.56958,0.08467,0.39383,-0.71854,-1.26625,-0.55995,12752,16.791,-32.391,-1.17,208.237,-11.171,-7.466,5,43.5524,,,,NaN,,,,0 / 0,13018,2018-08-09 08:43:10:902
-2.01776,3.62932,9.31201,0.27338,2.39046,9.50691,-2.48235,0.98078,-2.82826,-0.09036,0.3851,0.0004,11864,18.413,-32.492,3.247,209.313,-14.109,-1.647,5,40.7123,,,,NaN,,,,0 / 0,13518,2018-08-09 08:43:11:402
-1.16353,1.56372,8.00613,0.61393,4.13494,8.87106,-0.16381,-2.1984,-1.33997,0.43436,0.74713,0.67906,8168,-8.447,-35.492,14.569,166.588,-24.939,-3.959,5,43.3763,,,,NaN,,,,0 / 0,14019,2018-08-09 08:43:11:903
2.33299,1.70909,9.73135,-0.60125,2.55469,9.44894,2.12038,-1.03123,0.99062,-0.32982,-1.06059,0.09569,12780,-21.758,-35.536,7.262,150.332,-16.721,5.954,5,48.4935,,,,NaN,,,,0 / 0,14519,2018-08-09 08:43:12:403
-1.5392,1.85684,9.34552,-0.07746,2.79384,9.39994,-0.60212,0.21435,1.93166,0.72797,0.51909,1.52815,13676,-27.016,-33.693,6.735,142.536,-15.258,2.006,5,49.1771,,,,NaN,,,,0 / 0,15018,2018-08-09 08:43:12:902
0.67836,2.70749,9.7834,-0.91144,4.16392,8.83185,1.13258,-1.88671,3.36154,-0.30742,0.10858,-0.22664,10952,-33.253,-29.756,6.253,134.055,-23.878,5.748,5,52.101,,,,NaN,,,,0 / 0,15519,2018-08-09 08:43:13:403
-2.1398,2.93541,7.93555,-1.07292,2.77376,9.34481,-0.4255,-0.74458,5.20546,0.673,-0.03334,0.40152,13412,-23.451,-39.418,8.087,151.496,-16.43,6.55,5,46.2473,,,,NaN,,,,0 / 0,16019,2018-08-09 08:43:13:903
-0.1011,1.32744,13.52458,-0.97811,2.3958,9.45906,0.29567,-0.67886,4.58991,-0.10626,0.1151,0.09142,12260,-20.512,-40.855,4.204,153.617,-16.314,6.554,5,51.0156,,,,NaN,,,,0 / 0,16519,2018-08-09 08:43:14:403
-0.18365,0.01138,11.62587,-0.41363,1.83773,9.62404,-0.71309,1.94807,2.3741,-0.41412,-0.80505,0.16695,14396,-18.199,-38.994,-0.204,154.936,-10.801,2.461,5,52.9683,,,,NaN,,,,0 / 0,17018,2018-08-09 08:43:14:902
2.25165,1.62953,13.2805,0.5527,1.77653,9.62854,0.06155,-0.23722,4.38202,-0.15553,-0.33183,0.08469,14260,-21.817,-35.69,0.171,148.013,-10.546,-3.113,5,52.2239,,,,NaN,,,,0 / 0,17519,2018-08-09 08:43:15:403
-1.34657,2.08894,12.88988,0.34556,1.82416,9.6293,-0.45418,0.5293,4.81688,-0.34529,1.53535,0.65727,12428,-23.544,-33.53,-2.733,143.854,-10.72,-2.055,5,50.8571,,,,NaN,,,,0 / 0,18018,2018-08-09 08:43:15:902
0.94576,1.99503,9.8815,0.09756,1.93024,9.61432,0.69269,0.05616,1.45456,-0.11276,-0.7578,-0.36266,13892,-29.794,-29.614,-2.034,134.01,-11.352,-0.581,5,49.5721,,,,NaN,,,,0 / 0,18519,2018-08-09 08:43:16:403
0.40976,2.52744,12.21391,-0.00548,1.51416,9.68905,-1.30785,-0.22615,0.97109,0.0369,-0.11275,0.31723,13728,-25.137,-33.511,-3.018,142.957,-8.972,1.397,5,52.8931,,,,NaN,,,,0 / 0,19018,2018-08-09 08:43:16:902
0.01555,1.63611,10.5144,0.131,2.76179,9.40881,0.31326,-1.07597,-0.21138,0.01958,-0.32736,-0.02789,12020,-28.134,-27.893,0.645,133.676,-18.157,-1.112,5,52.3936,,,,NaN,,,,0 / 0,19518,2018-08-09 08:43:17:402
-2.15176,1.6714,11.26575,0.0098,1.34291,9.71426,0.23767,0.27866,0.15851,-0.33185,0.53903,0.10037,12920,-24.055,-32.613,-3.598,143.142,-8.767,-0.292,5,44.0291,,,,NaN,,,,0 / 0,20019,2018-08-09 08:43:17:903
-0.93143,1.77011,8.89207,0.58923,1.74111,9.63285,-0.52409,-0.15002,-0.09175,0.48241,-0.24998,-0.26859,12432,-22.978,-32.669,-1.242,144.458,-10.227,-3.5,5,52.5335,,,,NaN,,,,0 / 0,20519,2018-08-09 08:43:18:403
-0.41457,2.03929,8.63724,0.11079,2.14298,9.569,-0.69112,-0.42755,-4.10015,-0.3736,-0.74091,-0.1851,11552,-18.838,-36.913,0.427,152.233,-13.434,1.191,5,52.1122,,,,NaN,,,,0 / 0,21018,2018-08-09 08:43:18:902
-1.46562,2.29533,7.84103,0.36164,2.74244,9.40844,-2.31705,-1.34889,-3.03707,0.12241,-0.06897,-0.35899,11020,-19.032,-37.526,1.303,152.457,-16.675,-2.21,5,51.428,,,,NaN,,,,0 / 0,21519,2018-08-09 08:43:19:403
-0.00958,2.75175,7.26256,-0.21417,2.16514,9.56225,0.30474,-0.5352,-2.65101,-0.12823,0.02347,-0.21219,11436,-16.745,-37.204,-0.771,154.668,-12.755,1.283,5,61.5675,,,,NaN,,,,0 / 0,22018,2018-08-09 08:43:19:902
-0.11905,0.80521,3.1786,-0.07888,3.57598,9.13108,2.36061,-2.3632,-4.23209,-0.25468,1.23195,-0.43718,9280,-18.983,-35.736,1.335,150.776,-21.386,0.495,5,57.4157,,,,NaN,,,,0 / 0,22518,2018-08-09 08:43:20:402
-1.13123,0.94159,5.6797,-1.39035,1.75131,9.54831,2.78255,-0.37776,-2.56879,-0.63972,0.34926,-0.08633,12888,-24.255,-32.855,-6.259,142.263,-11.612,7.483,5,52.343,,,,NaN,,,,0 / 0,23018,2018-08-09 08:43:20:902
0.06639,1.07619,8.78679,0.35844,2.04737,9.58385,-0.59068,-0.76598,-0.69053,0.2067,-1.0213,0.36243,11156,-29.663,-31.4,-2.362,135.081,-10.693,-0.085,5,54.2487,,,,NaN,,,,0 / 0,23518,2018-08-09 08:43:21:402
0.60059,1.31368,9.2157,-0.60239,2.31338,9.51082,1.19551,0.18229,0.00082,-0.08914,-0.47804,-0.70392,10432,-23.518,-32.956,-1.541,143.002,-13.645,3.624,5,50.6694,,,,NaN,,,,0 / 0,24018,2018-08-09 08:43:21:902
1.20418,1.80121,8.74132,-0.65474,2.44752,9.47372,1.66772,0.72762,-1.58877,0.33173,-0.36787,-0.24516,12160,-27.203,-32.039,-1.207,139.497,-12.481,5.416,5,45.4428,,,,NaN,,,,0 / 0,24518,2018-08-09 08:43:22:402
0.22731,0.6377,18.52797,0.47429,0.9199,9.75188,-1.6398,1.25262,-0.62284,-3.97096,-0.18747,0.76926,10664,-30.174,-30.482,-3.229,134.643,-5.382,-2.784,5,49.6534,,,,NaN,,,,0 / 0,25018,2018-08-09 08:43:22:902
-0.72325,0.29134,10.76744,1.47073,0.29619,9.69121,0.13125,-2.60521,-2.4218,0.13138,0.51175,-0.58379,14116,-35.582,-22.757,0.487,122.571,-3.03,-10.269,5,52.0342,,,,NaN,,,,0 / 0,25519,2018-08-09 08:43:23:403
-4.16113,-1.44048,8.67253,-2.24179,0.30388,9.54214,0.2274,-4.04716,0.55574,-0.81158,1.87703,0.49823,15564,-34.256,-20.894,-18.387,119.069,-1.776,13.221,5,47.2581,,,,NaN,,,,0 / 0,26019,2018-08-09 08:43:23:903
-5.06264,1.20779,8.34592,-1.71927,-0.67984,9.6308,-3.91652,-1.50804,0.27832,1.11893,-1.68857,-1.61432,17252,-33.107,-25.168,-14.041,125.489,6.603,15.739,5,46.7269,,,,NaN,,,,0 / 0,26519,2018-08-09 08:43:24:403
-2.1033,3.73581,7.98579,-0.69075,2.00612,9.57438,2.42132,-2.15884,2.69653,2.08856,0.66406,-1.46262,12924,-20.793,-37.524,1.904,151.248,-11.804,4.126,5,53.8431,,,,NaN,,,,0 / 0,27019,2018-08-09 08:43:24:903
-3.17888,2.86363,8.01689,-1.08422,2.32534,9.46508,-2.64684,-1.04481,1.69455,-0.66254,0.19003,0.61838,10648,-18.002,-38.417,0.691,154.603,-13.752,5.383,5,58.3526,,,,NaN,,,,0 / 0,27518,2018-08-09 08:43:25:402
0.34636,2.84209,11.03963,-1.44781,3.60726,9.00344,3.00603,-0.45776,0.40384,-0.60941,0.57263,-0.22623,9572,-29.063,-30.313,2.675,136.368,-24.232,6.311,5,47.7943,,,,NaN,,,,0 / 0,28018,2018-08-09 08:43:25:902
-0.66701,3.6395,7.24042,-0.57832,3.42945,9.16923,-2.45661,-0.19529,2.1237,0.32909,0.20531,0.37463,11404,-15.314,-38.861,6.868,159.715,-20.469,3.609,5,51.0086,,,,NaN,,,,0 / 0,28518,2018-08-09 08:43:26:402
-2.68297,2.4724,12.65299,-2.84595,3.25816,8.80087,-1.32475,-0.16192,-1.31908,-0.46707,-0.60184,-0.00653,9632,-15.489,-37.888,3.049,161.071,-21.007,19.557,5,48.0912,,,,NaN,,,,0 / 0,29019,2018-08-09 08:43:26:903
-5.29054,4.84847,11.57742,-2.55361,2.92359,9.00567,-0.78359,2.58706,1.21197,-0.05534,-0.09889,0.31274,11124,-12.029,-39.978,1.81,164.378,-18.181,15.069,5,55.0034,,,,NaN,,,,0 / 0,29518,2018-08-09 08:43:27:402
-0.8716,5.5741,10.4193,-1.7363,4.52748,8.52394,-1.18803,0.0993,1.59992,-0.56827,0.57935,-0.06232,8620,-17.722,-36.469,7.518,156.68,-27.495,11.513,5,42.6426,,,,NaN,,,,0 / 0,30019,2018-08-09 08:43:27:903
-1.88736,6.38287,9.70264,-1.13587,4.66223,8.55242,-1.73997,0.53349,0.38109,0.13687,-0.60794,0.20667,9908,-6.784,-38.44,12.143,172.278,-28.386,7.565,5,44.8909,,,,NaN,,,,0 / 0,30518,2018-08-09 08:43:28:402
-1.06303,4.68396,10.16745,-1.75622,4.76988,8.38656,-0.0155,-0.51041,-2.85587,-0.44365,0.26436,0.20767,9044,-18.025,-34.976,7.547,155.886,-29.704,11.12,5,48.9083,,,,NaN,,,,0 / 0,31019,2018-08-09 08:43:28:903
-2.4413,4.80899,10.94333,-0.40898,3.58639,9.11817,-1.73758,0.36624,0.91541,-0.05717,-0.75313,-0.51659,9236,-9.663,-38.907,6.836,166.072,-21.451,2.568,5,55.5499,,,,NaN,,,,0 / 0,31519,2018-08-09 08:43:29:403
-3.42953,3.24887,7.27632,-1.7531,4.32322,8.62594,0.25186,-1.26226,-3.06284,-0.04314,-0.46399,-0.12198,9436,-13.857,-37.083,6.894,161.789,-26.158,11.488,5,56.5187,,,,NaN,,,,0 / 0,32019,2018-08-09 08:43:29:903
-1.95854,1.99982,9.26894,-0.32944,3.09083,9.301,-0.13641,-0.58354,-1.6305,0.29344,-0.74925,-0.10997,10952,-10.266,-40.625,3.56,166.256,-18.372,2.029,5,59.0211,,,,NaN,,,,0 / 0,32518,2018-08-09 08:43:30:402
-0.68675,2.99524,6.02188,0.08502,2.86361,9.37885,-0.30752,-0.94935,-3.31807,0.31767,-0.42041,-0.05336,9760,-16.911,-37.865,2.466,155.37,-15.848,-0.143,5,59.1448,,,,NaN,,,,0 / 0,33019,2018-08-09 08:43:30:903
-0.00539,1.25026,6.39038,-0.39357,1.82577,9.62715,0.10242,-0.83353,-2.47462,-0.31332,0.29266,-0.34372,11600,-17.513,-38.951,-2.571,154.445,-10.764,3.828,5,55.467,,,,NaN,,,,0 / 0,33519,2018-08-09 08:43:31:403
-0.43849,0.9039,4.44621,-0.22313,2.39233,9.50775,1.97187,-1.11831,-1.0757,1.09204,-0.23676,0.045,11156,-18.501,-36.891,-0.755,151.986,-14.12,1.344,5,51.6955,,,,NaN,,,,0 / 0,34019,2018-08-09 08:43:31:903
1.84546,0.38884,6.7469,-2.35076,1.07878,9.45941,3.66734,-0.8316,-0.73804,0.7186,-1.09583,-0.02261,12036,-21.692,-34.265,-11.32,144.306,-3.133,16.539,5,60.3652,,,,NaN,,,,0 / 0,34519,2018-08-09 08:43:32:403
-0.93501,0.40381,6.38559,-1.72117,0.75302,9.62501,-0.34575,-1.0434,3.2651,1.07535,0.77971,1.22435,12972,-21.535,-35.8,-9.282,146.796,-4.404,10.139,5,58.8166,,,,NaN,,,,0 / 0,35019,2018-08-09 08:43:32:903
1.77547,-0.27516,16.72917,-1.19248,2.19776,9.48252,3.10868,-0.4252,5.10386,-0.61876,0.45148,-0.99367,9552,-28.506,-34.087,-2.713,138.524,-13.227,4.858,5,47.0756,,,,NaN,,,,0 / 0,35520,2018-08-09 08:43:33:404
-5.96413,5.56093,13.88231,-1.69437,1.78295,9.49319,-1.833,3.37437,3.15681,-0.9527,2.08025,0.09589,10460,-11.252,-42.245,-4.439,164.267,-10.475,10.12,5,43.0968,,,,NaN,,,,0 / 0,36019,2018-08-09 08:43:33:903
1.25563,4.78984,10.14652,-0.61695,3.60441,9.09934,-0.89874,0.06249,-0.34923,-0.05556,-0.60103,-0.80247,8680,-13.235,-40.692,8.005,163.284,-21.564,3.879,5,45.241,,,,NaN,,,,0 / 0,36518,2018-08-09 08:43:34:402
-3.79384,4.13541,4.06335,-1.70982,4.38066,8.60562,-0.67644,-0.41612,-1.31938,0.55286,0.28023,-0.19507,10732,7.66,-40.343,12.025,194.167,-26.532,11.238,5,66.5038,,,,NaN,,,,0 / 0,37018,2018-08-09 08:43:34:902
-6.78307,0.58206,14.983,-2.46616,3.04952,8.98826,-4.04885,0.69216,-0.04762,-0.41759,0.49139,1.00749,11280,-13.809,-40.883,2.985,163.26,-19.29,18.238,5,68.4759,,,,NaN,,,,0 / 0,37519,2018-08-09 08:43:35:403
-1.31248,1.29094,15.45798,-2.77485,1.84609,9.22294,-2.44977,0.09854,2.85279,-1.09767,-0.4648,0.93399,11996,-26.109,-34.868,-9.239,140.941,-13.899,18.473,5,58.6386,,,,NaN,,,,0 / 0,38018,2018-08-09 08:43:35:902
-2.65007,3.19742,9.56984,-0.93027,2.78219,9.35758,-0.12532,-0.55498,-4.62195,-0.31679,-0.5096,-0.31989,10592,-28.159,-35.033,-0.371,140.951,-16.481,5.677,5,63.2039,,,,NaN,,,,0 / 0,38519,2018-08-09 08:43:36:403
-0.14777,1.83591,8.0157,-0.55671,2.99476,9.32158,0.23931,-1.70034,-2.34196,0.01123,0.29225,0.13966,11020,-33.824,-28.349,-4.054,127.167,-18.041,2.755,5,57.6492,,,,NaN,,,,0 / 0,39019,2018-08-09 08:43:36:903
0.84047,1.38725,7.10344,-0.08139,1.83001,9.63405,-0.65706,-1.26249,-0.63037,0.30852,-0.1834,-0.35471,12904,-31.647,-31.604,-6.195,133.819,-8.751,0.587,5,58.8953,,,,NaN,,,,0 / 0,39520,2018-08-09 08:43:37:404
-1.32384,0.68257,6.65958,-0.30141,1.95714,9.60464,0.80768,-0.47299,-3.74728,0.14624,-0.21965,-0.56097,12076,-32.977,-28.885,-7.318,129.352,-11.512,1.797,5,62.0273,,,,NaN,,,,0 / 0,40019,2018-08-09 08:43:37:903
1.35852,1.93581,7.93973,-1.57167,2.16232,9.43528,1.26142,-0.98033,2.59537,0.23643,-0.16141,-0.0898,11904,-33.45,-25.499,-12.274,123.638,-12.738,9.457,5,50.5318,,,,NaN,,,,0 / 0,40519,2018-08-09 08:43:38:403
0.71664,2.73203,6.13973,-0.64135,3.07951,9.28847,-0.47886,-1.30817,6.02379,1.2191,0.28471,1.27464,11140,-38.406,-27.37,-6.374,123.338,-14.399,3.109,5,62.5932,,,,NaN,,,,0 / 0,41019,2018-08-09 08:43:38:903
1.79521,1.99562,8.60074,-2.11247,2.83609,9.14683,2.9941,-0.29955,-0.58328,-0.03152,1.5549,-0.6015,10724,-37.103,-23.389,-11.92,118.504,-16.81,13.005,5,67.2685,,,,NaN,,,,0 / 0,41519,2018-08-09 08:43:39:403
-3.95117,2.59024,8.78619,0.66897,3.32173,9.20266,-0.01921,-0.03083,2.75579,0.40504,1.24071,-0.00877,11000,-29.044,-35.675,2.281,139.333,-19.799,-4.158,5,52.2777,,,,NaN,,,,0 / 0,42018,2018-08-09 08:43:39:902
8.07338,2.90192,12.70026,-1.90719,4.86529,8.29831,1.12996,1.35729,-0.35947,-0.52795,1.17088,1.10422,8716,-34.465,-25.946,-4.599,123.847,-32.204,11.532,5,61.4724,,,,NaN,,,,0 / 0,42518,2018-08-09 08:43:40:402
-0.0036,4.60919,13.39597,-0.50423,4.49403,8.70172,1.01531,1.86813,-0.70409,-0.98447,0.72963,0.75969,10080,-32.089,-31.178,2.38,132.646,-27.275,3.316,5,62.7352,,,,NaN,,,,0 / 0,43018,2018-08-09 08:43:40:902
2.63449,3.34219,12.93953,-0.14443,3.61242,9.11592,1.92258,0.31252,3.52494,-1.13127,0.27412,0.28098,9484,-37.384,-24.246,1.06,121.25,-25.478,1.217,5,61.9885,,,,NaN,,,,0 / 0,43519,2018-08-09 08:43:41:403
-1.9059,4.94119,11.33633,-0.18022,3.53813,9.14437,-1.62485,1.66548,2.07214,-0.48885,0.18779,0.01628,9128,-30.121,-29.672,0.92,133.182,-21.948,-0.217,5,54.1717,,,,NaN,,,,0 / 0,44018,2018-08-09 08:43:41:902
-0.93022,3.38824,12.27313,-0.12358,4.69425,8.60925,-0.35532,-0.93702,-2.85981,-0.58557,0.06236,-0.00124,9192,-36.194,-26.064,1.906,123.417,-29.497,0.415,5,60.709,,,,NaN,,,,0 / 0,44519,2018-08-09 08:43:42:403
-1.81557,2.84628,9.181,-0.21314,3.68897,9.08386,-0.41386,-0.82012,-1.66724,-0.05515,-0.15164,-0.37039,9788,-32.094,-30.2,-1.736,130.462,-22.097,1.344,5,56.9502,,,,NaN,,,,0 / 0,45019,2018-08-09 08:43:42:903
-0.42235,2.91507,5.63663,0.01668,4.28944,8.81878,0.04581,-1.73399,-3.52521,0.42357,-0.38478,-0.2307,9616,-31.683,-29.094,2.417,130.385,-25.373,0.591,5,54.4304,,,,NaN,,,,0 / 0,45520,2018-08-09 08:43:43:404
0.12981,3.46362,5.30524,0.13525,3.65437,9.09932,-0.21467,-0.09637,-3.9311,0.27287,-0.08769,-0.48462,9624,-23.506,-33.316,1.407,142.216,-21.801,-0.297,5,55.6538,,,,NaN,,,,0 / 0,46018,2018-08-09 08:43:43:902
-1.08157,1.51466,6.98499,0.34737,3.91813,8.9832,0.43746,-1.1966,0.54272,0.38651,0.22302,0.21358,9584,-23.106,-32.472,3.781,142.885,-23.549,-2.214,5,57.1584,,,,NaN,,,,0 / 0,46519,2018-08-09 08:43:44:403
0.40199,2.30969,8.62647,-0.1168,3.58645,9.12656,1.81962,0.29331,-2.54195,0.2173,-0.02295,-0.28101,8908,-22.63,-32.672,-1.245,142.871,-21.636,0.578,5,53.052,,,,NaN,,,,0 / 0,47019,2018-08-09 08:43:44:903
1.07257,3.78485,7.16624,0.4897,3.77939,9.03586,-0.64922,0.55325,-2.52057,1.24477,0.16478,0.755,8076,-25.032,-30.911,1.164,139.408,-21.691,0.007,5,56.5834,,,,NaN,,,,0 / 0,47519,2018-08-09 08:43:45:403
2.662,3.32544,7.98161,0.30282,3.37596,9.20226,2.68499,-0.12681,3.2502,-0.04475,0.12895,0.17549,6660,-26.328,-31.694,-3.864,138.53,-16.744,-1.644,5,56.8774,,,,NaN,,,,0 / 0,48019,2018-08-09 08:43:45:903
0.68793,2.85106,15.56445,0.77367,3.32551,9.19309,-0.27842,2.46233,1.86055,-0.53445,-0.30943,-0.15353,6404,-21.147,-36.888,0.146,148.547,-19.822,-4.811,5,58.3536,,,,NaN,,,,0 / 0,48519,2018-08-09 08:43:46:403
3.86021,5.88635,9.66675,0.38746,4.07522,8.91139,-0.63135,0.20456,1.25564,-0.43306,0.03142,0.06412,6600,-20.7,-34.244,1.964,145.914,-26.006,-1.978,5,49.1077,,,,NaN,,,,0 / 0,49019,2018-08-09 08:43:46:903
-3.04549,3.89972,11.77004,-0.19805,3.3246,9.22378,-3.5857,-0.18214,2.77509,-0.35344,0.23198,-0.3199,5080,-3.349,-38.812,-0.287,175.329,-19.817,1.23,5,56.7157,,,,NaN,,,,0 / 0,49519,2018-08-09 08:43:47:403
-2.45445,2.63272,11.0851,0.30256,3.32365,9.22129,-2.7071,-0.64588,1.32885,-0.27382,0.2049,0.06331,4384,-7.417,-39.752,3.558,169.435,-21.767,-2.723,5,55.2443,,,,NaN,,,,0 / 0,50018,2018-08-09 08:43:47:902
-3.26862,1.63191,7.83743,0.57369,2.34019,9.50604,0.1267,-0.25186,-1.71979,0.23053,-0.05472,-0.19365,2400,-8.778,-37.297,0.659,165.913,-13.806,-3.454,5,54.8312,,,,NaN,,,,0 / 0,50518,2018-08-09 08:43:48:402
-2.56871,2.24329,8.0809,0.31585,3.80474,9.03297,-0.44696,-1.58219,-4.27404,0.38243,0.06114,-0.2193,2572,-17.323,-33.691,2.841,152.275,-21.244,-2.188,5,60.7633,,,,NaN,,,,0 / 0,51020,2018-08-09 08:43:48:904
-0.7041,2.3378,7.04662,0.17069,2.78516,9.40128,-0.02481,-0.47609,-2.57027,0.25069,-0.48842,-0.79474,1952,-8.943,-36.705,0.966,165.864,-15.993,-1.014,5,54.2901,,,,NaN,,,,0 / 0,51518,2018-08-09 08:43:49:402
-2.88097,1.95316,4.43304,-0.32042,3.91437,8.98584,-1.88852,-2.50868,-4.64708,1.12096,0.13342,0.42209,1532,-11.331,-35.301,6.32,162.796,-20.553,1.565,5,56.3394,,,,NaN,,,,0 / 0,52018,2018-08-09 08:43:49:902
0.86501,2.50829,4.23624,0.34935,3.11634,9.29176,3.74557,-0.11092,-0.18767,0.23358,-0.22412,-0.36876,1250,-16.618,-33.376,1.66,151.733,-18.245,-2.394,5,52.257,,,,NaN,,,,0 / 0,52518,2018-08-09 08:43:50:402
-4.06363,1.05585,10.28111,-2.61559,1.76382,9.28537,2.64941,1.25554,-2.59438,-0.25572,0.79376,0.13295,880,-20.364,-32.898,-5.692,147.202,-10.362,15.732,5,55.7468,,,,NaN,,,,0 / 0,53019,2018-08-09 08:43:50:903
-1.4351,1.89513,5.88908,-2.78619,2.17218,9.14818,0.02654,-1.32475,-0.17031,0.60703,-0.66862,-0.32642,1250,-18.279,-33.809,-5.721,150.474,-9.856,18.463,5,49.1168,,,,NaN,,,,0 / 0,53520,2018-08-09 08:43:51:404
-2.45087,0.69154,7.31938,-2.28671,3.26799,8.95888,-0.0841,-2.46947,-0.46595,0.46408,-0.01419,0.04092,1250,-21.008,-32.129,0.822,147.978,-16.839,13.301,5,60.8696,,,,NaN,,,,0 / 0,54018,2018-08-09 08:43:51:902
1.10069,3.24887,8.86874,-1.33102,3.67213,8.99524,0.75951,-1.84594,5.16643,-0.04822,-0.2738,-0.17654,880,-24.121,-30.661,3.23,143.22,-21.991,8.417,5,61.415,,,,NaN,,,,0 / 0,54519,2018-08-09 08:43:52:403
-2.81577,3.78008,11.44701,-1.19809,3.99346,8.87622,-1.14501,0.7062,0.83624,0.84241,0.44923,0.55811,1250,-20.085,-32.561,7.011,150.991,-24.03,7.687,5,58.5128,,,,NaN,,,,0 / 0,55018,2018-08-09 08:43:52:902
0.34097,5.64827,10.80753,-1.70694,4.07282,8.75608,0.66035,1.39228,4.31113,-0.68962,-0.18503,0.2543,1488,-22.369,-31.607,4.974,148.135,-25.337,11.938,5,53.8884,,,,NaN,,,,0 / 0,55518,2018-08-09 08:43:53:402
-5.85765,4.35675,9.97124,-2.83095,3.28018,8.79753,-2.82428,0.92655,-0.18529,-0.02562,-0.0034,-1.05782,1416,-4.515,-37.413,4.767,175.009,-20.994,17.97,5,49.405,,,,NaN,,,,0 / 0,56019,2018-08-09 08:43:53:903
-4.79643,3.52524,6.69127,-3.01613,4.07444,8.39478,-0.54626,-2.14098,-1.66181,0.23582,0.93895,0.42717,1344,-11.71,-36.528,8.072,167.415,-24.549,19.763,5,57.8583,,,,NaN,,,,0 / 0,56519,2018-08-09 08:43:54:403
0.47856,3.8369,6.59795,-0.09246,2.74454,9.41432,-1.04224,-0.67211,-3.39596,-0.31476,-1.01743,-0.16597,1772,-14.412,-37.622,4.228,160.204,-17.482,4.906,5,53.7957,,,,NaN,,,,0 / 0,57019,2018-08-09 08:43:54:903
-2.61656,0.88716,6.15169,-0.85765,2.07564,9.54602,-1.08378,-1.68888,-2.54054,0.33702,0.59381,-0.77478,4156,-7.768,-39.415,1.796,168.477,-11.566,2.917,5,57.2639,,,,NaN,,,,0 / 0,57518,2018-08-09 08:43:55:402
-2.03271,2.3055,7.89127,-0.19835,2.80762,9.39406,-1.76269,-0.51308,-0.53713,0.61354,-0.20377,-0.67236,5128,-4.947,-39.749,2.364,172.85,-13.43,1.58,5,66.3783,,,,NaN,,,,0 / 0,58018,2018-08-09 08:43:55:902
-0.44806,5.5741,7.40912,-0.21462,4.16522,8.87554,-0.27011,-1.6536,-2.58283,1.18083,-0.91887,0.64301,3444,-0.929,-37.573,11.24,178.924,-25.134,1.385,5,54.0418,,,,NaN,,,,0 / 0,58519,2018-08-09 08:43:56:403
0.24048,3.28416,7.06516,1.8051,2.86795,9.20255,2.06578,1.98552,-2.11325,-0.78552,1.5101,-0.37447,7740,-9.839,-38.899,6.541,163.018,-19.212,-17.189,5,54.9174,,,,NaN,,,,0 / 0,59019,2018-08-09 08:43:56:903
-2.63512,0.42055,4.15428,0.14951,2.96152,9.34759,-2.25947,-2.03563,-5.40457,0.04036,0.52071,-0.12971,7324,-16.187,-37.608,4.239,156.734,-17.577,-0.916,5,57.7758,,,,NaN,,,,0 / 0,59518,2018-08-09 08:43:57:402
-1.05525,1.34897,5.10663,-2.23724,0.75454,9.51818,1.60922,0.40255,-3.58045,1.18369,0.02408,0.21582,11776,-19.418,-35.159,-12.236,148.415,-0.374,15.295,5,54.8631,,,,NaN,,,,0 / 0,60018,2018-08-09 08:43:57:902
-1.21378,0.60899,7.10643,-0.48739,1.61363,9.66069,2.11916,-0.16632,-0.32855,0.69907,0.60316,-0.26859,11380,-22.861,-34.12,-3.337,145.173,-9.471,2.888,5,45.4542,,,,NaN,,,,0 / 0,60518,2018-08-09 08:43:58:402
-0.5043,1.84547,6.79118,-0.86623,0.78418,9.73679,-0.55297,-0.52806,-2.51333,0.19347,-0.22636,-0.24741,10928,-15.747,-37.677,-7.283,156.155,-4.313,5.152,5,55.0712,,,,NaN,,,,0 / 0,61020,2018-08-09 08:43:58:904
-0.19682,1.33701,6.14272,-0.79701,2.04321,9.55827,-0.53398,-1.08783,-3.03219,0.65813,-0.13861,0.66216,10260,-17.67,-37.703,-5.205,153.495,-9.726,5.774,5,54.759,,,,NaN,,,,0 / 0,61518,2018-08-09 08:43:59:402
0.97986,1.68814,6.29048,-0.33367,1.89167,9.61669,1.10181,-0.20349,-3.55597,-0.02277,-0.39149,-0.32762,10184,-19.18,-35.025,-4.262,150.454,-10.385,4.992,5,63.8587,,,,NaN,,,,0 / 0,62019,2018-08-09 08:43:59:903
-2.32344,0.14658,8.11859,-0.24841,1.86289,9.62488,0.19553,0.8661,-4.04848,0.14175,-0.00626,-0.35023,10664,-15.164,-36.864,-3.432,157.117,-11.548,1.81,5,63.838,,,,NaN,,,,0 / 0,62519,2018-08-09 08:44:00:403
0.21774,1.05704,7.54013,-0.05481,1.59556,9.67582,2.68181,-0.04247,-3.04189,0.2849,-0.16222,-0.3372,9580,-16.769,-37.454,-3.137,154.722,-9.364,0.325,5,54.8779,,,,NaN,,,,0 / 0,63019,2018-08-09 08:44:00:903
-1.76233,0.85724,9.5184,0.00871,3.71123,9.07729,0.29564,-1.98053,-3.54748,0.09839,-0.33815,-0.12421,8784,-17.339,-34.288,2.829,152.559,-22.435,0.768,5,54.1969,,,,NaN,,,,0 / 0,63518,2018-08-09 08:44:01:402
-0.73581,1.76233,6.49446,0.35816,2.66318,9.43131,-1.31316,-1.01873,-2.22675,0.10103,-0.03578,-0.40623,8296,-13.037,-37.215,-1.678,159.82,-14.555,-1.334,5,52.6115,,,,NaN,,,,0 / 0,64019,2018-08-09 08:44:01:903
-0.03471,2.59743,5.36386,-0.29375,4.21946,8.84761,-0.70379,-1.37798,-3.29658,0.17656,0.27168,1.10646,7868,-16.295,-34.892,2.812,154.363,-25.484,1.902,5,51.2554,,,,NaN,,,,0 / 0,64519,2018-08-09 08:44:02:403
1.30527,2.86243,7.12198,1.22027,3.32572,9.14445,1.46032,-0.36663,-3.32603,-0.20805,-0.2343,-0.28853,6244,-9.625,-36.436,2.747,163.33,-19.824,-7.601,5,60.1396,,,,NaN,,,,0 / 0,65019,2018-08-09 08:44:02:903
-2.01118,0.24408,6.50941,-0.40753,1.65968,9.65659,0.46414,-1.25497,-0.49287,0.0593,0.71394,0.06677,4520,-11.411,-35.074,-4.898,161.858,-9.155,0.808,5,61.1043,,,,NaN,,,,0 / 0,65518,2018-08-09 08:44:03:402
-3.0395,1.27898,3.17442,-2.4637,0.9859,9.44079,-0.38986,-0.04789,-5.09978,0.84567,0.52641,0.07695,3836,-12.119,-33.768,-10.185,157.055,-4.175,14.758,5,62.2874,,,,NaN,,,,0 / 0,66018,2018-08-09 08:44:03:902
4.46141,4.36513,5.97163,0.98467,4.6293,8.58897,0.00967,-1.01864,-5.66017,0.47182,-0.23227,0.62326,3772,-25.183,-24.73,5.411,132.203,-28.168,-6.54,5,61.8311,,,,NaN,,,,0 / 0,66519,2018-08-09 08:44:04:403
-0.03529,5.89413,10.00475,0.43947,3.31469,9.21901,-2.34063,3.31405,2.35966,1.39667,-0.85881,0.06758,4420,-13.47,-33.949,-0.731,158.017,-17.155,0.411,5,50.052,,,,NaN,,,,0 / 0,67019,2018-08-09 08:44:04:903
0.80159,1.88795,8.04083,1.10063,2.40336,9.44367,0.62563,0.33057,1.22936,0.89331,-0.05655,0.75012,1400,-20.605,-30.331,0.262,143.79,-14.186,-6.648,5,52.4434,,,,NaN,,,,0 / 0,67519,2018-08-09 08:44:05:403
-0.27937,0.99782,9.08112,-0.03202,2.14759,9.56855,-0.69478,-1.46451,0.74839,-0.85475,0.67709,-1.57359,1250,-17.146,-32.089,-2.742,150.848,-13.535,-2.023,5,60.6732,,,,NaN,,,,0 / 0,68019,2018-08-09 08:44:05:903
-0.37747,1.2748,6.44601,0.9057,2.40682,9.46347,-0.96047,0.0735,1.01255,0.14644,0.26762,0.26225,1364,-17.36,-34.872,2.228,153.297,-14.207,-5.467,5,62.0087,,,,NaN,,,,0 / 0,68519,2018-08-09 08:44:06:403
1.2,2.88396,11.31181,1.23579,2.48416,9.40597,0.11423,1.52259,-0.63481,-0.36688,-0.44077,-0.36407,880,-20.018,-34.834,1.358,149.069,-15.681,-6.543,5,60.7085,,,,NaN,,,,0 / 0,69019,2018-08-09 08:44:06:903
1.26819,2.33839,10.39117,1.06301,1.91169,9.5596,-0.47537,0.50399,-0.17039,-0.17465,-0.1954,0.32719,550,-18.266,-35.133,0.752,152.196,-11.241,-6.345,5,59.2903,,,,NaN,,,,0 / 0,69518,2018-08-09 08:44:07:402
-1.37888,1.06363,8.06953,-0.79469,1.68279,9.62845,-0.49593,-0.74305,-0.44663,0.37021,-0.25916,0.02361,550,-20.764,-34.709,-4.541,147.962,-9.263,2.748,5,58.0639,,,,NaN,,,,0 / 0,70019,2018-08-09 08:44:07:903
-0.48634,2.00041,4.1459,-1.18461,1.90634,9.54636,-4.3284,-2.75641,3.51015,2.43575,-2.242,-0.01242,880,-15.202,-39.012,-0.517,159.458,-2.083,16.777,5,54.1781,,,,NaN,,,,0 / 0,70518,2018-08-09 08:44:08:402
-0.78606,2.17748,10.7208,-0.83075,1.66231,9.62897,0.83697,1.35863,-1.0231,-0.16957,0.26476,0.08163,880,-19.234,-38.091,-0.183,153.355,-9.759,4.931,5,44.0799,,,,NaN,,,,0 / 0,71019,2018-08-09 08:44:08:903
-0.85066,0.84589,10.46655,-0.46264,1.61359,9.66192,0.34722,-0.70688,3.08775,-0.12967,0.2733,-0.04826,550,-24.005,-37.738,-1.035,147.236,-11.029,2.716,5,61.7092,,,,NaN,,,,0 / 0,71518,2018-08-09 08:44:09:402
-0.05385,1.48058,8.96565,-0.40255,0.87456,9.75928,0.66207,0.78957,0.1245,-0.05698,-0.19418,-0.20769,550,-23.254,-35.596,-3.952,146.921,-5.708,2.008,5,57.8026,,,,NaN,,,,0 / 0,72019,2018-08-09 08:44:09:903
0.34396,0.53241,8.76704,-0.46221,0.58371,9.77834,-0.93392,-0.45674,1.14037,0.47975,-0.14125,-0.00468,880,-16.069,-37.424,-4.913,156.148,-3.412,2.706,5,49.6441,,,,NaN,,,,0 / 0,72518,2018-08-09 08:44:10:402
-1.75754,0.87877,11.03066,-0.30231,0.43441,9.79236,-1.27869,1.0409,-0.20307,-0.14575,-0.04861,0.0851,880,-8.549,-39.862,-5.296,167.038,-2.539,1.768,5,62.4757,,,,NaN,,,,0 / 0,73018,2018-08-09 08:44:10:902
-0.55215,0.06282,12.4155,-0.51216,0.75642,9.76401,0.00254,-0.07768,2.96707,0.36633,0.25153,0.9458,880,-20.308,-37.402,-4.297,151.225,-3.921,2.488,5,59.8068,,,,NaN,,,,0 / 0,73518,2018-08-09 08:44:11:402
-0.91347,1.32205,10.50662,-0.59238,1.32259,9.69898,-0.23292,0.01686,0.87999,-0.54158,0.31709,0.50352,880,-36.604,-26.848,-3.421,125.684,-7.751,3.495,5,54.8145,,,,NaN,,,,0 / 0,74018,2018-08-09 08:44:11:902
0.35951,0.6694,6.56267,-0.2841,2.3093,9.52664,2.15085,-2.38038,-0.58001,0.58177,-0.00768,-0.18143,880,-39.439,-20.233,-4.761,115.344,-13.62,1.708,5,64.5785,,,,NaN,,,,0 / 0,74518,2018-08-09 08:44:12:402
-0.68495,1.67319,7.79556,0.36177,3.07132,9.30626,-0.11217,-1.07587,4.4339,2.03502,0.52641,1.03967,880,-39.685,-16.974,-3.519,110.9,-12.954,-3.254,5,63.8585,,,,NaN,,,,0 / 0,75019,2018-08-09 08:44:12:903
0.51564,3.73102,11.54572,-0.38815,2.87121,9.36888,2.45394,0.93197,4.90566,0.10918,-0.02153,-0.50153,880,-42.661,-8.516,-7.481,99.159,-16.481,1.479,5,65.479,,,,NaN,,,,0 / 0,75519,2018-08-09 08:44:13:403
0.82373,4.1743,12.25519,0.12062,3.53336,9.1472,-0.12565,0.76884,2.55595,-0.69023,0.00861,0.10994,550,-40.862,-14.871,-3.769,106.792,-22.316,0.06,5,63.5216,,,,NaN,,,,0 / 0,76019,2018-08-09 08:44:13:903
-0.11546,4.33221,5.93036,-0.0006,3.88232,9.00544,-0.88641,-1.38763,0.75422,0.20589,0.38979,0.53204,880,-45.045,-5.836,-6.238,93.986,-23.321,0.004,5,61.5939,,,,NaN,,,,0 / 0,76520,2018-08-09 08:44:14:404
0.45164,1.26941,6.59737,0.26373,3.85124,9.01492,1.54493,-1.9371,0.12861,0.30647,0.78644,-0.24313,880,-45.219,-4.576,-9.462,90.474,-21.927,-3.12,5,61.8578,,,,NaN,,,,0 / 0,77019,2018-08-09 08:44:14:903
-0.51746,2.29054,13.87991,-0.11611,3.22065,9.26198,-0.5199,1.04117,1.65753,-0.12621,0.06644,0.45406,1492,-44.82,-1.799,-14.139,86.803,-19.173,0.718,5,60.7466,,,,NaN,,,,0 / 0,77518,2018-08-09 08:44:15:402
1.16829,4.09712,10.76386,0.26001,3.96681,8.96477,0.63182,0.23159,2.10692,-0.33797,-0.08871,0.09364,2512,-44.395,7.796,-16.623,71.623,-24.145,-0.878,5,65.5216,,,,NaN,,,,0 / 0,78018,2018-08-09 08:44:15:902
0.16869,3.34457,8.51102,0.47843,3.73664,9.05423,-0.60468,-1.16962,-3.02567,-0.85841,-0.20844,-0.03218,2080,-46.542,5.951,-13.101,76.108,-22.398,-3.025,5,61.3506,,,,NaN,,,,0 / 0,78518,2018-08-09 08:44:16:402
-1.3035,2.08476,5.48708,0.41586,4.27881,8.81415,0.80442,-2.9561,0.31156,0.13625,0.46594,-0.2191,2412,-47.809,6.374,-18.698,72.687,-25.869,-2.701,5,49.9021,,,,NaN,,,,0 / 0,79018,2018-08-09 08:44:16:902
2.95752,1.82813,6.15169,1.21729,3.55433,9.05844,1.01028,-1.89374,3.09736,1.16373,-0.30455,-0.40419,2488,-48.25,2.75,-16.399,76.559,-21.25,-7.654,5,56.0916,,,,NaN,,,,0 / 0,79518,2018-08-09 08:44:17:402
0.20578,3.91887,11.5535,0.50953,2.72385,9.40699,-0.46391,1.69863,0.44243,-0.08548,0.24216,0.28117,2744,-47.113,-1.465,-15.005,84.558,-17.351,-3.559,5,69.2829,,,,NaN,,,,0 / 0,80019,2018-08-09 08:44:17:903
0.04845,3.52284,10.55449,0.88775,3.2206,9.22009,-0.97694,-0.73108,-1.52189,-0.79224,-0.03496,-0.12054,2652,-49.579,-0.514,-16.745,81.665,-21.694,-5.378,5,61.5734,,,,NaN,,,,0 / 0,80520,2018-08-09 08:44:18:404
-1.18266,1.2748,7.68848,0.59823,3.02794,9.30828,1.1783,-1.9101,-0.12546,-0.11705,0.6608,-0.15497,2728,-50.304,-8.33,-13.635,92.694,-17.985,-3.677,5,54.6826,,,,NaN,,,,0 / 0,81018,2018-08-09 08:44:18:902
0.31883,1.25325,11.88251,-0.01819,2.59376,9.4574,-0.04596,-0.35969,1.91466,0.2287,0.2444,0.22844,3844,-47.244,0.964,-17.027,83.372,-15.306,-0.038,5,61.1764,,,,NaN,,,,0 / 0,81518,2018-08-09 08:44:19:402
-1.33641,2.64946,11.14192,-0.28722,2.10108,9.57462,-0.88627,0.59838,1.89693,-0.58109,-0.50797,-0.41173,4608,-39.261,-3.835,-18.933,89.719,-13.337,1.876,5,58.7254,,,,NaN,,,,0 / 0,82018,2018-08-09 08:44:19:902
1.23769,0.81776,10.59755,0.09234,2.68132,9.43252,0.22043,-0.75142,-0.5851,0.02977,-0.25833,0.10036,4056,-43.584,-7.44,-16.02,92.926,-15.868,-0.561,5,59.431,,,,NaN,,,,0 / 0,82518,2018-08-09 08:44:20:402
0.92123,2.57111,8.6797,0.60906,2.7159,9.40337,0.15575,-0.1559,-0.27893,0.12038,0.29999,0.23088,3700,-45.634,2.187,-19.081,79.853,-16.078,-3.706,5,58.0615,,,,NaN,,,,0 / 0,83018,2018-08-09 08:44:20:902
-0.0706,1.92384,6.30124,0.22634,2.82469,9.38831,0.89286,-2.73678,1.96194,-0.04556,-0.19237,-0.91101,4032,-46.719,-5.267,-18.916,88.101,-17.468,-2.442,5,58.0079,,,,NaN,,,,0 / 0,83519,2018-08-09 08:44:21:403
0.95653,2.06203,9.15469,1.59098,1.93504,9.48129,-1.21303,0.025,-0.0075,-0.4917,-0.52873,-1.55078,1250,-28.65,-38.19,-6.331,141.844,-11.38,-9.526,5,52.5669,,,,NaN,,,,0 / 0,84019,2018-08-09 08:44:21:903
0.6993,2.3396,7.07353,1.6893,2.26208,9.39147,-1.1799,0.04867,0.28281,0.54004,0.05829,0.13376,1250,-22.375,-41.556,-4.657,151.863,-13.336,-10.197,5,61.0945,,,,NaN,,,,0 / 0,84519,2018-08-09 08:44:22:403
1.08215,2.04648,9.99037,1.24653,2.0515,9.50831,0.3764,0.3492,0.18834,0.03812,0.28288,-0.37569,1250,-21.255,-39.154,-5.801,151.254,-11.977,-8.365,5,57.9401,,,,NaN,,,,0 / 0,85018,2018-08-09 08:44:22:902
-2.59563,1.52962,9.85757,-2.55182,1.64078,9.32558,-0.20161,-0.42845,2.67526,0.70966,1.06865,-1.61288,1250,0.327,-43.719,-9.848,176.384,-9.632,15.304,5,60.0258,,,,NaN,,,,0 / 0,85519,2018-08-09 08:44:23:403
-4.10908,3.24408,6.00633,-1.5902,5.56926,7.9136,-3.15017,-2.28113,-2.31739,-0.0081,-1.64885,0.8448,880,13.332,-39.481,11.418,204.19,-34.442,19.806,5,62.95,,,,NaN,,,,0 / 0,86019,2018-08-09 08:44:23:903
-1.86583,3.92783,11.61749,-0.70541,3.40454,9.16962,8.73675,3.75576,0.49372,0.37511,2.81938,-1.74239,880,3.336,-46.028,-0.162,183.974,-20.314,4.399,5,65.0098,,,,NaN,,,,0 / 0,86520,2018-08-09 08:44:24:404
8.48195,2.7739,10.78659,3.33196,3.86633,8.37376,-4.22587,-0.3944,-2.99654,-0.84091,-1.26239,3.04921,880,-9.86,-44.786,2.594,164.99,-30.606,-14.728,5,68.903,,,,NaN,,,,0 / 0,87019,2018-08-09 08:44:24:903
3.47377,1.58705,9.66675,4.19121,1.86652,8.66719,-1.01971,-0.24264,0.05028,-0.60919,0.01776,0.20543,1250,-28.114,-39.178,-1.924,145.661,-10.972,-25.807,5,62.7661,,,,NaN,,,,0 / 0,87518,2018-08-09 08:44:25:402
1.51884,1.45067,10.81232,2.32596,1.72702,9.36897,-0.59834,-0.02092,0.88609,0.05786,0.42317,0.2207,1372,-29.413,-40.593,-5.191,144.965,-10.142,-14.644,5,63.5669,,,,NaN,,,,0 / 0,88018,2018-08-09 08:44:25:902
1.69949,1.77669,8.75926,1.78292,2.43044,9.33191,-0.36453,-0.724,0.78558,0.42477,0.08557,0.59598,1250,-36.407,-31.895,-4.695,129.68,-12.953,-10.423,5,67.0484,,,,NaN,,,,0 / 0,88519,2018-08-09 08:44:26:403
2.45862,2.64886,8.56485,2.02562,2.38543,9.29392,0.14527,-0.03403,-0.12246,-0.05452,0.02022,-0.06924,1250,-38.663,-31.024,-2.6,126.115,-14.078,-12.295,5,61.2286,,,,NaN,,,,0 / 0,89018,2018-08-09 08:44:26:902
1.44945,2.05425,8.87114,1.01838,2.05485,9.53472,0.68038,0.25123,-0.85773,-0.22313,0.08699,-0.03604,1340,-35.947,-33.957,-6.212,131.42,-12.707,-6.384,5,63.2535,,,,NaN,,,,0 / 0,89519,2018-08-09 08:44:27:403
0.65562,1.72704,9.5513,0.77663,2.16136,9.53393,-0.16115,-0.36482,0.44164,0.09776,0.04199,0.02441,1460,-34.906,-34.549,-6.819,133.123,-12.186,-4.635,5,53.1319,,,,NaN,,,,0 / 0,90018,2018-08-09 08:44:27:902
1.44884,2.21815,8.31839,1.13343,2.27909,9.47056,-0.25602,-0.24143,0.67929,0.06825,-0.14023,-0.1794,1332,-32.274,-35.483,-5.966,135.65,-13.439,-6.825,5,53.4708,,,,NaN,,,,0 / 0,90519,2018-08-09 08:44:28:403
-1.45245,2.0076,13.37981,1.25698,1.95244,9.52777,-1.91561,1.98018,-2.54109,-1.20987,-0.02051,-0.61595,1250,-23.82,-42.082,-7.611,149.718,-11.484,-7.516,5,56.7898,,,,NaN,,,,0 / 0,91018,2018-08-09 08:44:28:902
1.70967,-0.31703,17.53734,1.31573,1.98124,9.51388,0.2454,0.40621,3.60352,-0.25185,-0.37541,-0.14458,1944,-23.804,-42.13,-5.251,149.182,-13.958,-7.39,5,58.8536,,,,NaN,,,,0 / 0,91518,2018-08-09 08:44:29:402
-0.36671,2.77031,11.05399,0.85563,3.2722,9.20494,-1.15986,0.65118,1.43827,0.29935,1.55226,0.65523,1250,-32.224,-35.95,2.295,136.366,-19.492,-5.311,5,52.2489,,,,NaN,,,,0 / 0,92019,2018-08-09 08:44:29:903
0.41455,4.69234,5.66774,0.61732,3.7985,9.02002,0.07294,0.28828,0.06702,0.71962,1.03506,0.46017,2104,-42.12,-23.642,2.576,117.773,-22.789,-3.915,5,48.8643,,,,NaN,,,,0 / 0,92518,2018-08-09 08:44:30:402
-0.75316,2.67519,10.80872,1.13726,3.62755,9.0398,-0.02925,-0.05278,-3.05831,-0.15573,0.09474,0.29625,3364,-43.684,-16.496,3.897,107.947,-21.71,-7.17,5,52.5854,,,,NaN,,,,0 / 0,93018,2018-08-09 08:44:30:902
2.49571,4.74738,2.98898,2.14098,4.94824,8.19155,-0.24039,-1.70738,-4.52657,0.24948,-0.7851,0.16431,3508,-43.55,-6.743,8.504,98.309,-27.658,-10.575,5,58.9932,,,,NaN,,,,0 / 0,93518,2018-08-09 08:44:31:402
1.70906,3.1382,8.0815,2.13061,2.85875,9.13556,-0.41626,0.07144,-0.35562,-0.04843,-0.38457,-0.5791,5004,-32.977,-20.558,8.781,121.293,-15.174,-12.106,5,51.059,,,,NaN,,,,0 / 0,94018,2018-08-09 08:44:31:902
2.45143,2.96951,3.61171,1.89288,5.34553,8.0008,0.5106,-3.6659,-3.63142,1.06029,0.30304,-0.25697,2408,-23.526,-19.304,16.724,128.152,-30.394,-14.705,5,46.269,,,,NaN,,,,0 / 0,94518,2018-08-09 08:44:32:402
0.05861,3.35475,4.88588,2.43649,3.2197,8.93686,-0.97289,-0.85933,-1.48213,-0.17201,-0.72299,-0.74301,6836,-6.145,-27.969,10.559,163.805,-19.365,-14.443,5,46.3959,,,,NaN,,,,0 / 0,95018,2018-08-09 08:44:32:902
3.55034,2.92345,6.42746,3.13981,3.02839,8.78299,1.39668,-0.59284,0.18797,1.31807,0.98232,0.61635,11344,-13.892,-27.014,10.622,148.378,-17.988,-19.671,5,48.5137,,,,NaN,,,,0 / 0,95519,2018-08-09 08:44:33:403
-2.00879,1.14737,11.09586,3.48516,1.73616,9.00054,-3.72803,-0.06342,-1.025,-0.47337,-0.27014,-1.15005,12776,-9.567,-34.993,5.135,162.184,-10.752,-20.606,5,51.8288,,,,NaN,,,,0 / 0,96019,2018-08-09 08:44:33:903
1.55891,2.6722,6.3515,2.82664,2.65785,9.00646,0.34921,-0.20217,-3.09514,0.65936,0.0815,0.24107,11856,-17.221,-31.079,6.432,148.863,-15.97,-19.018,5,59.5938,,,,NaN,,,,0 / 0,96518,2018-08-09 08:44:34:402
0.45523,1.98726,2.10782,1.63062,3.15316,9.14161,1.85214,-1.15698,-2.64791,0.93831,0.23523,-0.56221,12156,-22.488,-29.535,5.899,142.172,-15.194,-11.774,5,57.6707,,,,NaN,,,,0 / 0,97019,2018-08-09 08:44:34:903
-0.61617,1.11806,6.86475,1.35435,2.69554,9.33114,-0.50327,-1.92711,0.81456,0.53636,-0.13332,-0.03931,10212,-32.025,-29.425,4.184,130.674,-15.954,-8.258,5,57.1475,,,,NaN,,,,0 / 0,97519,2018-08-09 08:44:35:403
1.12761,2.31805,4.25838,1.27254,2.82595,9.30403,0.3018,-0.47669,-4.03232,0.17087,0.5934,-0.58908,12660,-27.664,-38.156,6.363,142.275,-15.578,-9.338,5,56.139,,,,NaN,,,,0 / 0,98019,2018-08-09 08:44:35:903
-0.04189,0.49474,7.29247,0.80667,2.83271,9.3539,-0.69087,-2.04979,0.11965,-0.05515,0.29327,-0.5732,13328,-11.092,-38.513,2.716,163.525,-16.79,-4.929,5,49.7051,,,,NaN,,,,0 / 0,98518,2018-08-09 08:44:36:402
2.17986,4.01996,3.14153,0.81788,2.14865,9.53335,3.28949,0.88603,-0.48524,0.99289,0.15868,-0.77518,13672,1.724,-34.056,-1.41,183.604,-12.656,-4.903,5,58.4248,,,,NaN,,,,0 / 0,99019,2018-08-09 08:44:36:903
0.31166,2.65067,7.68131,2.15704,2.25551,9.29679,-2.30724,0.20582,-1.52726,0.15601,-0.18544,0.19791,14500,16.254,-30.113,-10.281,212.534,-12.799,-12.296,5,59.6727,,,,NaN,,,,0 / 0,99519,2018-08-09 08:44:37:403
0.07655,1.70729,6.09906,2.45282,1.77922,9.32676,-2.8699,-0.1956,-3.00088,0.3521,-0.3913,-0.23743,15704,18.027,-35.132,-13.632,211.932,-8.63,-12.856,5,56.4742,,,,NaN,,,,0 / 0,100019,2018-08-09 08:44:37:903
0.65024,0.96791,4.2159,1.98305,2.2631,9.33361,-0.67804,-1.49904,-1.58299,0.392,0.28247,0.29706,15364,13.847,-40.88,-8.101,201.428,-12.385,-11.158,5,57.5159,,,,NaN,,,,0 / 0,100519,2018-08-09 08:44:38:403
-4.80959,-0.1633,7.73634,0.42401,0.49453,9.78499,3.8751,1.30004,-4.21051,-1.88834,2.787,-1.32292,14944,22.031,-37.877,-12.228,211.033,-2.891,-2.481,5,53.4471,,,,NaN,,,,0 / 0,101019,2018-08-09 08:44:38:903
0.98463,-2.76071,8.78619,-1.10684,0.74867,9.71518,1.81241,-5.80109,4.75147,0.22606,-0.84251,-0.60455,12352,24.715,-38.632,-5.464,212.144,-3.838,7.721,5,48.2958,,,,NaN,,,,0 / 0,101519,2018-08-09 08:44:39:403
6.94397,-0.76869,12.83485,-0.6085,1.41955,9.68427,5.31516,-2.49539,2.83025,-0.58823,1.0428,1.42044,15844,21.321,-39.816,-4.582,208.099,-8.323,3.595,5,61.1575,,,,NaN,,,,0 / 0,102018,2018-08-09 08:44:39:902
-2.13681,-0.12082,12.73076,0.03115,0.07371,9.80632,-1.95395,1.11554,1.63255,-0.002,-0.41614,-0.70413,14676,35.274,-25.447,-12.372,234.408,1.042,-1.045,5,61.161,,,,NaN,,,,0 / 0,102519,2018-08-09 08:44:40:403
0.87457,-1.71565,3.24442,-0.69872,4.47347,8.69886,1.46142,-4.417,-1.50103,1.99348,-0.79405,-0.24475,15568,31.555,-30.878,6.746,227.636,-27.14,4.592,5,65.1733,,,,NaN,,,,0 / 0,103019,2018-08-09 08:44:40:903
1.24306,1.76114,5.65938,3.70684,4.9162,7.63287,-3.95679,-3.71885,-0.93727,1.56424,-1.0276,-0.02629,18200,33.774,-27.429,-17.125,238.733,-25.134,-21.396,5,63.1927,,,,NaN,,,,0 / 0,103520,2018-08-09 08:44:41:404
2.39043,4.43871,5.9854,1.75496,5.66482,7.81027,1.41394,-1.15249,-1.86572,0.85156,1.12302,0.12521,17392,36.165,-26.106,-9.732,239.567,-34.466,-16.9,5,53.1039,,,,NaN,,,,0 / 0,104018,2018-08-09 08:44:41:902
-2.60759,5.32344,10.30025,0.41245,4.28441,8.81159,-3.46129,1.1192,-1.02399,-0.1313,-0.75862,0.07431,15128,41.937,-16.04,-8.104,256.958,-29.468,0.812,5,47.1024,,,,NaN,,,,0 / 0,104518,2018-08-09 08:44:42:402
-2.74399,2.55255,7.3152,-2.70745,3.40081,8.7906,0.58142,-2.21273,-2.02213,0.52354,0.19044,0.45183,14092,32.666,-28.775,5.597,231.101,-15.859,16.519,5,52.1191,,,,NaN,,,,0 / 0,105018,2018-08-09 08:44:42:902
-4.54578,0.90271,12.67094,-0.14013,1.59647,9.67481,-5.4031,-0.2622,1.02557,-0.12314,-0.31107,0.04459,16264,41.534,-16.872,-11.07,250.417,-9.369,0.83,5,56.5072,,,,NaN,,,,0 / 0,105518,2018-08-09 08:44:43:402
1.47397,1.09532,7.97324,0.03816,2.85191,9.38273,1.45866,-1.69325,-0.85964,0.4763,-0.55623,0.64159,16316,33.745,-32.178,-3.627,229.288,-17.083,1.45,5,51.2664,,,,NaN,,,,0 / 0,106019,2018-08-09 08:44:43:903
-8.1703,1.83949,13.80574,-2.01869,1.87629,9.41142,-3.2422,0.10962,-0.22506,-0.38704,0.17966,-0.80267,15700,43.204,-16.139,-3.683,252.388,-13.277,7.539,5,51.6513,,,,NaN,,,,0 / 0,106518,2018-08-09 08:44:44:402
-1.5045,2.38864,14.50504,-1.85678,3.58909,8.93539,-0.59557,-0.69312,-2.19777,-0.65704,-0.05289,0.70125,13932,32.37,-32.286,2.286,228.465,-21.468,11.739,5,50.7554,,,,NaN,,,,0 / 0,107019,2018-08-09 08:44:44:903
1.33578,2.13441,12.52737,-0.67208,2.368,9.4927,-1.11488,-0.37747,-0.20699,0.14868,-0.76086,-0.06395,13508,38.55,-23.804,-6.454,241.171,-13.973,4.05,5,47.7052,,,,NaN,,,,0 / 0,107519,2018-08-09 08:44:45:403
-2.47598,1.14677,9.72656,-1.41688,1.26731,9.62064,-0.99178,-0.02413,-0.17124,-0.12804,-0.40799,-0.61473,13356,39.644,-22.942,-5.263,241.353,-8.235,8.541,5,50.5197,,,,NaN,,,,0 / 0,108018,2018-08-09 08:44:45:902
-1.21498,1.59602,7.7495,-0.08987,1.73794,9.651,-1.74911,-0.61091,-1.61167,0.17961,-0.36502,-0.26064,13920,43.779,-12.08,-12.767,257.803,-9.681,1.715,5,55.2905,,,,NaN,,,,0 / 0,108518,2018-08-09 08:44:46:402
-2.67459,2.77209,8.78798,0.1265,2.64002,9.44376,-0.63804,-0.65262,-4.48965,-0.35222,-1.03636,0.06494,14016,41.832,-18.64,-12.285,250.149,-15.617,-0.767,5,56.3898,,,,NaN,,,,0 / 0,109018,2018-08-09 08:44:46:902
2.75713,2.56812,8.79994,0.62131,1.24418,9.70754,0.72972,1.14127,-2.51927,-0.66478,-0.71016,-0.56587,13900,44.083,-12.608,-16.322,256.779,-9.284,-1.457,5,54.6133,,,,NaN,,,,0 / 0,109519,2018-08-09 08:44:47:403
-0.03171,0.45166,5.22926,-0.03773,6.25077,7.55625,4.97924,-4.81859,4.24692,0.51071,3.38728,0.53612,13992,35.606,-30.534,2.89,230.335,-35.361,-6.528,5,54.6588,,,,NaN,,,,0 / 0,110018,2018-08-09 08:44:47:902
0.35652,4.39682,8.45061,2.34167,4.17105,8.56092,1.36849,0.54787,-3.30858,0.37021,-0.97079,-0.53452,15360,29.543,-36.278,-5.745,222.343,-24.497,-14.713,5,54.1397,,,,NaN,,,,0 / 0,110519,2018-08-09 08:44:48:403
1.24307,3.16212,8.15389,1.36771,2.56605,9.36564,-0.20967,-1.49856,-4.86849,0.17372,1.6506,0.91974,15308,36.809,-27.554,-12.125,236.567,-15.169,-8.308,5,53.8153,,,,NaN,,,,0 / 0,111018,2018-08-09 08:44:48:902
-4.69594,2.55315,13.56586,0.94905,1.99482,9.5546,-3.01858,0.42951,-2.90928,-0.18341,-0.80933,-0.84808,14196,43.991,-9.297,-17.738,262.694,-12.022,-4.655,5,44.7606,,,,NaN,,,,0 / 0,111518,2018-08-09 08:44:49:402
1.52003,3.3051,7.13275,1.37126,3.00274,9.23437,-0.22121,-0.55458,-2.50696,0.09573,-0.47844,0.54303,13936,30.83,-33.215,-10.127,227.176,-17.83,-8.446,5,51.9833,,,,NaN,,,,0 / 0,112018,2018-08-09 08:44:49:902
-1.50032,2.4054,11.09647,1.32013,1.50507,9.60013,-1.62942,0.28379,-1.68698,-0.38113,-0.37744,-0.27937,14608,36.336,-24.49,-15.904,240.55,-11.41,-8.128,5,60.0697,,,,NaN,,,,0 / 0,112519,2018-08-09 08:44:50:403
3.72263,1.20839,11.60313,0.97448,2.15699,9.51673,-0.62556,-0.37557,-3.29045,0.07823,-0.09279,0.36995,16764,29.564,-33.76,-12.196,224.702,-11.933,-6.798,5,58.1997,,,,NaN,,,,0 / 0,113018,2018-08-09 08:44:50:902
-2.03212,1.87479,16.26137,1.36981,1.43852,9.60337,-2.805,0.11789,2.77744,0.14073,-0.29742,0.05537,14760,34.366,-25.673,-15.619,236.14,-8.435,-8.118,5,59.548,,,,NaN,,,,0 / 0,113519,2018-08-09 08:44:51:403
3.10469,0.26622,13.66754,1.68827,2.54941,9.31776,2.77304,-2.17031,1.90452,-1.89078,0.18781,0.06067,16876,25.507,-35.667,-4.825,218.667,-21.427,-8.147,5,59.3632,,,,NaN,,,,0 / 0,114018,2018-08-09 08:44:51:902
-1.7719,2.39224,12.05179,0.94604,1.02341,9.70711,-1.04872,0.51135,4.24222,0.4539,0.89903,0.1362,14740,33.289,-26.906,-13.274,232.833,-4.786,-9.261,5,59.293,,,,NaN,,,,0 / 0,114518,2018-08-09 08:44:52:402
1.77069,1.88197,12.53635,0.45234,3.10391,9.29148,1.4058,-1.37493,1.1209,-1.06102,0.86952,-0.3028,16752,27.184,-33.67,-0.958,220.03,-20.512,-3.965,5,53.535,,,,NaN,,,,0 / 0,115019,2018-08-09 08:44:52:903
-2.38745,1.64568,13.62149,-0.82601,0.64474,9.75051,-0.62567,0.08548,1.8329,-1.15509,0.80923,0.10098,14456,37.518,-22.591,-7.018,239.131,-3.77,4.842,5,48.9249,,,,NaN,,,,0 / 0,115518,2018-08-09 08:44:53:402
-0.6676,0.67958,13.1501,-0.31304,1.34524,9.7089,1.13739,-0.14519,3.09356,-1.17444,0.35333,-1.03156,15280,31.691,-29.131,-5.922,229.552,-11.231,-0.209,5,55.6361,,,,NaN,,,,0 / 0,116018,2018-08-09 08:44:53:902
-5.52205,0.45406,9.42508,-0.22947,0.55581,9.7882,-2.16012,1.39511,3.81769,0.98148,0.01675,-0.02016,15408,36.969,-22.855,-8.496,238.604,-3.249,1.343,5,57.7631,,,,NaN,,,,0 / 0,116519,2018-08-09 08:44:54:403
0.15912,2.29114,10.88709,-0.47418,2.76204,9.39769,1.04491,0.77982,-1.40846,-1.01358,0.57202,-0.91447,16384,28.999,-31.895,-0.937,223.932,-16.359,2.889,5,53.2016,,,,NaN,,,,0 / 0,117019,2018-08-09 08:44:54:903
-0.5683,2.33839,17.74791,-0.00439,1.41267,9.70437,-1.5328,2.69215,1.36629,-1.52223,0.18759,0.08815,15184,33.191,-25.217,-8.221,234.444,-8.282,0.026,5,54.3142,,,,NaN,,,,0 / 0,117518,2018-08-09 08:44:55:402
-0.56352,1.24907,15.26416,0.03244,2.00947,9.59851,-0.40104,0.23313,6.17683,-0.1144,0.98355,-0.14987,15324,31.367,-27.612,-7.074,230.321,-13.513,-3.296,5,46.2487,,,,NaN,,,,0 / 0,118019,2018-08-09 08:44:55:903
-0.40799,2.27798,12.85997,-0.2291,2.64574,9.44023,-0.50392,2.07043,1.44123,0.17677,0.34457,0.0287,14692,32.634,-26.746,-6.18,233.73,-16.473,-0.271,5,45.5036,,,,NaN,,,,0 / 0,118519,2018-08-09 08:44:56:403
0.36668,1.68755,14.47632,1.05008,3.80852,8.97568,0.07995,-0.18393,0.0928,-0.81871,0.15135,-0.9444,12448,36.113,-21.649,-8.763,243.404,-22.853,-6.673,5,54.5091,,,,NaN,,,,0 / 0,119018,2018-08-09 08:44:56:902
-1.08276,4.7085,11.51939,-0.1187,4.03578,8.93693,0.3482,1.84156,2.16117,-0.19136,0.88478,0.18059,11016,38.68,-19.342,-5.783,248.074,-23.044,-2.44,5,57.547,,,,NaN,,,,0 / 0,119518,2018-08-09 08:44:57:402
2.11824,4.75156,10.37503,0.09677,4.17293,8.87399,1.00125,1.01784,1.53542,-0.69084,0.17883,-0.04135,12080,34.409,-28.693,0.862,231.715,-25.184,-0.625,5,55.3689,,,,NaN,,,,0 / 0,120019,2018-08-09 08:44:57:903
-1.43512,4.01457,9.26476,-1.35666,3.55256,9.03931,0.80891,1.24741,0.43627,-0.59961,1.01367,-0.31154,12892,38.068,-24.582,2.689,239.751,-23.681,7.092,5,51.789,,,,NaN,,,,0 / 0,120519,2018-08-09 08:44:58:403
-1.96632,3.01138,11.72278,-0.42995,4.25137,8.82674,-1.07063,-0.0965,-2.44065,-0.55563,0.18372,-0.16637,13992,42.827,-24.577,0.595,242.846,-25.691,2.789,5,50.4623,,,,NaN,,,,0 / 0,121020,2018-08-09 08:44:58:904
-2.6692,4.29573,12.56087,0.38971,2.96607,9.33922,-4.2662,0.75269,2.63889,0.1788,0.06908,0.43124,14148,51.286,-16.071,-10.225,255.872,-17.395,-2.447,5,45.0932,,,,NaN,,,,0 / 0,121519,2018-08-09 08:44:59:403
-0.14178,3.39842,8.88249,0.07678,3.79376,9.04278,0.44921,-1.19051,1.10442,-0.66336,0.74347,0.00142,15440,51.207,-26.624,-4.807,245.62,-22.759,-0.486,5,45.9199,,,,NaN,,,,0 / 0,122019,2018-08-09 08:44:59:903
-0.79263,5.49573,10.55269,0.05263,2.48601,9.48617,-1.86791,1.44046,5.29309,-0.27301,0.38774,-0.03157,13848,49.843,-16.632,-11.409,253.893,-13.411,-2.934,5,53.6711,,,,NaN,,,,0 / 0,122519,2018-08-09 08:45:00:403
-1.51886,3.01556,8.82567,1.16979,5.0502,8.32451,1.04401,-0.33764,1.20394,-0.16998,0.72534,-0.83017,14412,45.757,-17.488,-11.696,254.422,-30.313,-11.166,5,53.0026,,,,NaN,,,,0 / 0,123019,2018-08-09 08:45:00:903
0.78065,7.16533,7.61969,0.67,5.50491,8.08811,-1.61521,0.86214,1.99473,-0.20256,0.69032,-0.0334,12972,41.286,-13.313,-9.822,260.382,-34.149,-4.735,5,51.4966,,,,NaN,,,,0 / 0,123518,2018-08-09 08:45:01:402
3.62691,2.89354,14.02287,1.30143,4.35279,8.69079,0.97258,-0.51327,0.62997,-2.14307,0.99026,-0.98105,13756,30.479,-21.008,-8.719,241.87,-31.701,-12.644,5,59.4629,,,,NaN,,,,0 / 0,124018,2018-08-09 08:45:01:902
0.21056,6.39662,13.3822,0.52123,3.87684,8.99271,-1.34759,3.28344,0.96476,-0.06879,0.47021,0.27446,12264,26.917,-23.462,-4.019,233.904,-25.106,-3.469,5,62.4544,,,,NaN,,,,0 / 0,124519,2018-08-09 08:45:02:403
1.64685,3.45824,12.8169,0.08426,5.41444,8.17601,-0.80994,0.09725,0.20666,-1.02905,0.35782,-0.4944,12236,22.614,-27.771,4.196,221.791,-33.513,-0.59,5,60.7039,,,,NaN,,,,0 / 0,125019,2018-08-09 08:45:02:903
-1.95555,3.72624,9.04521,0.39732,3.58608,9.1188,-0.85621,0.96352,3.77778,0.21423,1.24255,0.34308,14412,22.705,-29.472,-0.266,220.028,-21.449,-2.495,5,56.317,,,,NaN,,,,0 / 0,125518,2018-08-09 08:45:03:402
0.64725,1.14917,10.93196,-1.20914,2.84958,9.30528,-1.15622,-2.61129,7.21228,0.26291,0.69684,0.45569,13772,12.549,-32.356,-1.146,203.492,-18.838,4.659,5,54.3071,,,,NaN,,,,0 / 0,126018,2018-08-09 08:45:03:902
-3.56532,1.60858,9.83484,-0.52765,2.75123,9.39802,-2.77923,0.72111,2.58918,0.325,0.07356,0.54791,14208,7.382,-39.427,-3.607,190.584,-16.293,3.213,5,45.8866,,,,NaN,,,,0 / 0,126518,2018-08-09 08:45:04:402
0.56769,3.19383,8.19276,0.09647,4.79802,8.5522,-2.35606,-2.3482,-1.22636,-0.69919,0.62111,0.384,12528,1.773,-41.435,9.381,182.706,-29.292,-0.646,5,60.6457,,,,NaN,,,,0 / 0,127019,2018-08-09 08:45:04:903
-0.58026,4.51468,5.31421,-0.4898,4.57598,8.65973,0.47444,-1.83106,2.78004,0.19652,1.40952,0.97247,11012,-7.294,-43.768,10.277,170.703,-28.398,-0.626,5,53.0359,,,,NaN,,,,0 / 0,127518,2018-08-09 08:45:05:402
1.2975,3.55875,16.89487,0.70214,3.72349,9.04505,1.84549,0.22671,5.6856,0.36066,-1.14427,-0.77539,12704,0.026,-46.129,6.058,179.521,-23.419,-3.561,5,53.9311,,,,NaN,,,,0 / 0,128018,2018-08-09 08:45:05:902
2.8325,3.30391,8.517,2.55212,3.58427,8.76413,0.35629,-0.92826,5.61482,0.32785,-0.3239,-0.12503,12704,23.318,-39.003,-1.329,210.878,-21.583,-13.163,5,59.8057,,,,NaN,,,,0 / 0,128519,2018-08-09 08:45:06:403
0.3326,2.62614,12.98859,2.29099,2.73079,9.13589,2.2227,1.40147,1.54489,-0.99606,0.61539,-0.63408,10732,24.405,-36.505,-7.196,215.309,-16.168,-14.078,5,61.4813,,,,NaN,,,,0 / 0,129018,2018-08-09 08:45:06:902
-2.38087,3.2704,7.51321,0.14116,3.55775,9.13744,1.377,-0.36034,3.98803,0.41542,1.3358,0.05171,10984,26.445,-33.916,-3.322,219.424,-21.501,-7.747,5,62.3156,,,,NaN,,,,0 / 0,129518,2018-08-09 08:45:07:402
4.15872,1.66362,11.3537,1.13224,3.35249,9.146,3.03961,-0.38306,1.2323,-1.2675,0.89354,-0.0723,11952,9.845,-41.01,-0.107,194.295,-19.99,-7.057,5,58.9229,,,,NaN,,,,0 / 0,130018,2018-08-09 08:45:07:902
-0.201,3.91826,9.98978,2.14204,2.58194,9.21497,-1.84749,-0.13556,0.70471,-0.86372,-0.26668,-0.68803,8028,23.222,-34.714,-6.862,216.149,-18.2,-14.012,5,56.9069,,,,NaN,,,,0 / 0,130519,2018-08-09 08:45:08:403
-2.27559,2.3354,7.92777,0.43593,3.91951,8.97874,-2.92601,-2.91959,-4.88739,-0.47093,-0.24265,0.15228,9704,25.586,-34.285,0.516,218.948,-23.558,-2.78,5,56.8287,,,,NaN,,,,0 / 0,131019,2018-08-09 08:45:08:903
-0.14238,1.72644,5.88908,1.2218,2.79002,9.32166,0.71876,-0.94948,-1.30466,0.23969,-0.32939,-0.77988,8388,24.84,-34.804,-3.033,216.82,-16.529,-7.467,5,53.59,,,,NaN,,,,0 / 0,131519,2018-08-09 08:45:09:403
0.84944,1.58765,11.62288,1.16875,2.88709,9.29888,-0.79562,0.10631,-1.15308,0.17821,0.02592,0.52348,7924,22.865,-36,-2.158,213.644,-17.122,-7.164,5,58.5311,,,,NaN,,,,0 / 0,132019,2018-08-09 08:45:09:903
2.68474,1.6062,7.85658,-0.45121,0.82958,9.76107,1.76267,-1.29285,7.24991,0.44658,0.43254,0.1588,9516,15.32,-39.436,-6.311,200.518,-0.468,3.764,5,59.9779,,,,NaN,,,,0 / 0,132519,2018-08-09 08:45:10:403
-2.34618,0.26442,10.32837,-1.23866,-0.29986,9.72349,-2.25718,0.43893,5.90037,0.97232,0.52661,1.09077,10836,21.277,-34.703,-6.555,209.613,2.885,6.138,5,67.1498,,,,NaN,,,,0 / 0,133019,2018-08-09 08:45:10:903
3.47676,2.05186,9.32996,-1.44013,0.26177,9.6968,1.82084,0.35826,4.74557,0.45737,0.3067,-0.13379,10644,17.7,-37.444,-2.449,205.409,-1.53,8.448,5,71.1039,,,,NaN,,,,0 / 0,133519,2018-08-09 08:45:11:403
-1.49133,0.46602,9.37842,-1.54245,-0.39172,9.67666,-1.94497,-0.33297,4.28071,0.47467,0.42786,1.05881,11328,26.744,-29.736,-3.542,220.865,2.935,7.464,5,67.248,,,,NaN,,,,0 / 0,134019,2018-08-09 08:45:11:903
-0.4361,0.1723,11.92976,-2.3291,0.06609,9.52582,1.51088,0.25888,2.1402,-1.12883,0.25153,-1.1859,11144,23.532,-31.561,-0.604,216.373,-1.892,10.374,5,63.707,,,,NaN,,,,0 / 0,134519,2018-08-09 08:45:12:403
-9.07062,-5.45384,13.38519,-3.04695,-2.84338,8.87703,0.11304,1.92584,1.71112,-1.52263,1.26596,-1.33148,13260,31.795,-20.285,-0.74,233.166,16.855,18.944,5,67.878,,,,NaN,,,,0 / 0,135020,2018-08-09 08:45:12:904
-3.70889,-2.70209,15.07393,-3.11815,-2.45825,8.96686,-0.89885,-1.02737,4.23387,-0.70612,-0.09586,-0.48421,13388,29.414,-22.598,-3.427,226.153,14.517,19.175,5,68.5993,,,,NaN,,,,0 / 0,135518,2018-08-09 08:45:13:402
-8.23791,-6.30807,17.16705,-2.65198,-3.4517,8.78767,-6.28983,-3.67703,7.16669,-0.75743,-0.24449,1.78777,11432,31.355,-16.029,-4.5,236.445,16.751,16.49,5,64.3697,,,,NaN,,,,0 / 0,136018,2018-08-09 08:45:13:902
-5.48556,-4.88135,15.07274,-3.0408,-3.31391,8.71447,-1.62634,-1.46399,2.51645,-1.37563,-0.15714,-0.58765,13536,20.949,-25.615,-13.179,206.664,19.751,19.236,5,63.8643,,,,NaN,,,,0 / 0,136519,2018-08-09 08:45:14:403
-4.00021,-2.8636,13.39896,-2.39651,-2.88517,9.06106,-2.02681,-0.14173,2.54693,-0.58577,-0.35994,0.32027,13240,20.929,-25.555,-16.132,207.766,16.936,14.619,5,59.2782,,,,NaN,,,,0 / 0,137019,2018-08-09 08:45:14:903
-1.69772,-3.44685,15.4837,-1.53698,-1.98596,9.47967,-0.73188,-2.47113,1.60699,-1.13269,-0.42488,0.10994,12908,15.131,-30.89,-15.605,199.325,8.055,10.985,5,58.0479,,,,NaN,,,,0 / 0,137518,2018-08-09 08:45:15:402
-1.20062,0.38884,11.37763,0.30747,0.25517,9.79851,-1.46241,0.89832,-0.26523,-0.44447,-0.08669,0.2034,10840,10.973,-35.088,-12.999,198.21,-1.491,-1.797,5,57.5156,,,,NaN,,,,0 / 0,138018,2018-08-09 08:45:15:902
2.71346,0.58147,10.44202,0.57782,0.94083,9.7443,1.20315,-1.19312,0.29705,-1.1217,-0.21475,0.0289,10252,0.995,-39.282,-8.293,182.107,-8.575,-2.698,5,55.6167,,,,NaN,,,,0 / 0,138519,2018-08-09 08:45:16:403
0.42651,0.71906,13.3828,1.00371,0.19427,9.75322,-1.57784,0.52208,-1.21126,-0.31944,-0.11682,0.19464,9512,8.585,-37.735,-13.921,195.389,-1.135,-5.876,5,62.736,,,,NaN,,,,0 / 0,139019,2018-08-09 08:45:16:903
2.26839,-0.6951,14.09049,0.99175,1.03879,9.70092,0.24845,-0.57284,-2.8034,-1.6165,-0.32166,-0.02362,8892,2.763,-39.307,-7.713,185.585,-10.434,-4.464,5,48.7253,,,,NaN,,,,0 / 0,139519,2018-08-09 08:45:17:403
0.79561,1.11208,12.99277,1.60986,0.02328,9.67358,-1.87312,0.96924,2.30092,-0.55544,0.06216,-0.23376,7756,14.452,-36.583,-14.229,203.542,-0.136,-9.448,5,49.4619,,,,NaN,,,,0 / 0,140019,2018-08-09 08:45:17:903
0.82552,-0.43788,14.09766,1.61767,0.73048,9.64468,-1.13516,0.33138,-2.0733,-0.554,-0.26768,0.14883,6408,4.323,-40.84,-6.274,187.223,-8.986,-10.542,5,47.9929,,,,NaN,,,,0 / 0,140519,2018-08-09 08:45:18:403
-1.74379,3.10112,13.00115,0.58873,1.81214,9.61977,0.09033,0.64629,5.55265,-0.71384,1.13748,-0.38342,4368,7.245,-38.56,-2.115,190.716,-10.76,-8.405,5,41.505,,,,NaN,,,,0 / 0,141018,2018-08-09 08:45:18:902
-0.65265,2.14159,12.66974,0.4313,3.00025,9.32646,0.3736,-0.47434,-1.38124,-1.82928,0.4014,-0.62451,1656,3.896,-39.198,1.141,186.014,-17.815,-2.648,5,41.08,,,,NaN,,,,0 / 0,141519,2018-08-09 08:45:19:403
-0.47319,3.46243,12.95688,0.05319,2.11071,9.57666,-1.98778,0.57567,2.38843,-0.90851,-0.00462,0.16226,1796,8.339,-38.02,0.252,192.298,-15.275,-0.935,5,45.7052,,,,NaN,,,,0 / 0,142018,2018-08-09 08:45:19:902
2.50706,1.65584,5.62706,0.70742,2.93011,9.3319,0.68011,-3.7761,2.7527,0.24805,0.29428,0.3555,3264,2.881,-37.709,1.765,184.345,-17.562,-5.247,5,57.1207,,,,NaN,,,,0 / 0,142518,2018-08-09 08:45:20:402
0.21295,3.20699,12.18997,-0.75848,2.505,9.45093,-0.23458,-0.06032,1.95993,-0.35527,0.17232,0.36792,6008,6.418,-37.117,0.575,189.646,-17.315,2.686,5,61.8544,,,,NaN,,,,0 / 0,143019,2018-08-09 08:45:20:903
-5.29533,0.43909,5.82866,-1.04944,1.86207,9.57088,-1.62883,-0.79245,-5.47701,-1.03761,0.48976,-1.05354,6100,11.172,-36.456,-4.462,196.989,-10.946,6.257,5,67.1831,,,,NaN,,,,0 / 0,143519,2018-08-09 08:45:21:403
-4.10251,-0.78484,8.16466,-2.32517,-0.82439,9.49128,-0.5347,0.26716,-0.86229,-0.18077,0.29286,-0.07352,6464,13.274,-35.446,-10.953,195.568,4.277,13.762,5,65.1436,,,,NaN,,,,0 / 0,144020,2018-08-09 08:45:21:904
-2.27618,-0.8309,11.19338,-1.53876,0.17239,9.68364,-0.48295,-0.89196,-2.1139,0.21974,0.07722,-0.04968,3480,2.226,-38.963,-9.772,180.599,-1.007,9.029,5,64.1505,,,,NaN,,,,0 / 0,144519,2018-08-09 08:45:22:403
-2.58546,-0.71484,9.15887,-2.80491,0.19991,9.39483,1.28142,-0.08681,-3.52571,0.74629,-0.15775,-0.07556,4152,6.084,-39.876,-10.402,183.657,-0.154,18.31,5,63.2858,,,,NaN,,,,0 / 0,145019,2018-08-09 08:45:22:903
-5.08118,-0.96729,4.51799,-2.75886,3.59603,8.69642,-3.17678,-6.87921,-6.0057,1.258,-2.27946,0.59679,4600,16.8,-34.669,8.238,209.09,-21.512,17.601,5,42.2728,,,,NaN,,,,0 / 0,145518,2018-08-09 08:45:23:402
1.92801,3.69513,0.51241,-1.0695,5.49565,8.05136,2.21777,-1.93342,-6.4418,1.05051,-1.52913,-0.52473,2460,-1.778,-36.392,12.152,180.196,-29.854,10.064,5,59.4641,,,,NaN,,,,0 / 0,146018,2018-08-09 08:45:23:902
0.07776,1.39742,3.04521,-0.54634,4.05743,8.91118,1.14055,-3.00537,0.36678,0.90105,0.48019,0.4962,2772,0.055,-38.977,6.483,180.473,-20.955,3.042,5,46.276,,,,NaN,,,,0 / 0,146518,2018-08-09 08:45:24:402
-0.4361,1.43451,4.02567,-0.72023,3.15122,9.25859,-0.20477,-2.30575,-3.16608,0.6282,-0.25201,-0.74281,4192,3.389,-39.903,6.743,185.209,-16.618,5.597,5,45.1428,,,,NaN,,,,0 / 0,147018,2018-08-09 08:45:24:902
-0.65923,0.1035,6.93893,-0.57347,2.13774,9.55362,0.09256,-2.0893,0.7681,0.71373,0.05219,0.2543,4680,3.217,-38.62,2.338,184.643,-11.911,3.907,5,48.0965,,,,NaN,,,,0 / 0,147519,2018-08-09 08:45:25:403
-0.06102,-0.27336,5.75031,-1.15514,1.31701,9.64891,1.52983,-1.41949,-3.39651,-0.50229,0.50911,-0.38606,5220,7.278,-38.013,0.258,190.488,-7.718,6.827,5,49.3215,,,,NaN,,,,0 / 0,148020,2018-08-09 08:45:25:904
-0.10529,-0.3978,6.15588,-1.49601,0.91659,9.64843,0.16615,-0.98588,-3.96174,0.04402,-0.31453,1.59921,5020,1.266,-37.309,-2.649,180.675,-5.385,10.607,5,46.4214,,,,NaN,,,,0 / 0,148519,2018-08-09 08:45:26:403
-0.37389,2.87379,6.42029,-1.84089,2.84319,9.20314,3.13054,-2.90898,-4.12438,-1.26567,1.47101,-1.24698,3060,-16.647,-34.258,1.054,153.045,-22.085,8.276,5,45.1664,,,,NaN,,,,0 / 0,149019,2018-08-09 08:45:26:903
0.49829,0.38646,7.22607,-0.69125,2.55657,9.44227,-1.42701,-2.19837,-3.40094,-0.23576,-0.3858,0.64098,2084,-7.344,-37.056,3.017,169.541,-15.111,4.187,5,42.5619,,,,NaN,,,,0 / 0,149519,2018-08-09 08:45:27:403
-3.59045,2.03331,9.19058,-0.42053,1.55511,9.67343,-1.83116,0.15132,2.80419,1.95337,0.30528,-0.85603,1452,-2.225,-37.068,1.511,177.032,-9.124,2.489,5,46.9297,,,,NaN,,,,0 / 0,150018,2018-08-09 08:45:27:902
-1.42136,2.02135,2.57562,-0.01192,4.23015,8.84737,-3.41081,0.08981,-1.36619,-1.02661,1.11794,2.56459,1620,-5.977,-34.843,11.023,172.338,-29.398,5.764,5,52.9433,,,,NaN,,,,0 / 0,150519,2018-08-09 08:45:28:403
-4.36154,4.96393,9.50703,-4.91471,0.73459,8.45437,1.9805,0.95586,3.29745,1.0831,3.59416,-0.96516,4188,-18.073,-30.977,-13.054,144.3,-4.296,30.17,5,48.9585,,,,NaN,,,,0 / 0,151019,2018-08-09 08:45:28:903
-2.21338,-3.64307,6.77982,-4.09276,0.40467,8.90258,-2.51555,-1.82827,5.24638,1.89595,-3.08031,-1.47362,5036,-30.452,-17.673,-16.873,117.472,-2.365,24.69,5,55.3066,,,,NaN,,,,0 / 0,151519,2018-08-09 08:45:29:403
0.54735,1.40102,10.5497,2.3729,-1.26455,9.43084,-1.27061,2.23836,2.00872,-0.37564,0.11897,-1.88757,2696,-10.912,-34.988,-9.329,167.064,6.229,-15.081,5,55.2134,,,,NaN,,,,0 / 0,152020,2018-08-09 08:45:29:904
2.21993,0.10051,8.24063,2.30199,2.07876,9.30322,-1.4743,-1.79903,-0.45521,1.37976,-0.29906,1.02623,4012,-13.078,-33.725,2.815,158.369,-10.048,-10.036,5,56.2296,,,,NaN,,,,0 / 0,152519,2018-08-09 08:45:30:403
1.31545,1.17369,7.74292,-0.1448,2.59091,9.45709,-1.06882,-1.70382,0.41434,-0.85782,-1.05286,-0.25331,4276,-5.727,-35.858,2.144,170.435,-15.686,1.665,5,58.4353,,,,NaN,,,,0 / 0,153018,2018-08-09 08:45:30:902
-1.14737,1.4716,7.07054,-1.26569,2.8905,9.28512,0.02994,0.17466,-2.98176,-0.47501,-0.33063,0.58641,5012,-6.651,-37.325,1.236,169.281,-17.142,7.762,5,48.9822,,,,NaN,,,,0 / 0,153518,2018-08-09 08:45:31:402
0.3954,1.57509,6.49567,-1.3758,1.38766,9.60999,2.35112,-0.55102,-0.86133,0.07599,0.33542,-0.34148,4320,-6.523,-37.523,-3.789,168.63,-9.189,7.161,5,47.3113,,,,NaN,,,,0 / 0,154019,2018-08-09 08:45:31:903
0.31345,1.52245,7.07472,-0.80245,2.38489,9.47833,0.3202,-0.28585,-2.7504,0.59807,-0.31351,0.05701,3484,-6.158,-38.194,-0.259,170.817,-14.075,4.839,5,48.8778,,,,NaN,,,,0 / 0,154518,2018-08-09 08:45:32:402
-0.75076,1.42076,5.61868,-0.62485,1.66935,9.6433,1.22947,-0.40856,-1.89933,-0.30397,0.65836,-0.42435,2748,-0.914,-39.058,-3.848,178.203,-8.999,2.731,5,46.4472,,,,NaN,,,,0 / 0,155018,2018-08-09 08:45:32:902
0.61675,0.98047,6.84322,-0.00769,2.21057,9.55425,1.07874,-0.27946,0.36651,0.93098,0.1882,0.04234,3308,-5.634,-38.824,1.202,171.08,-13.027,0.046,5,47.2139,,,,NaN,,,,0 / 0,155518,2018-08-09 08:45:33:402
-1.602,0.3009,8.53255,-0.23651,0.44253,9.79381,-0.28031,-0.33343,-0.08825,0.6734,0.37329,-1.01282,3060,2.368,-40.808,-7.149,182.579,-2.586,1.383,5,42.0439,,,,NaN,,,,0 / 0,156019,2018-08-09 08:45:33:903
-2.85884,1.92206,7.1507,-1.78781,2.11938,9.4065,0.23482,0.30384,-2.14556,0.64775,0.59869,0.58641,3828,-0.591,-40.898,-1.521,178.086,-10.644,10.109,5,45.6302,,,,NaN,,,,0 / 0,156518,2018-08-09 08:45:34:402
-1.92804,1.78566,4.30862,-1.31607,2.36135,9.42668,0.2609,-1.07925,-2.11188,0.49442,0.07825,-0.562,3796,-1.497,-41.803,-0.647,178.416,-11.527,8.272,5,44.0556,,,,NaN,,,,0 / 0,157019,2018-08-09 08:45:34:903
-2.89473,1.71925,7.1525,-0.15627,2.1774,9.56059,-0.73506,-0.18191,-0.30601,0.27635,0.2951,0.23598,2916,-3.97,-42.416,1.128,174.462,-13.407,0.837,5,44.0663,,,,NaN,,,,0 / 0,157519,2018-08-09 08:45:35:403
-1.3071,1.97229,5.30882,-0.19444,2.45255,9.49303,0.01788,-0.28521,-2.91847,0.32785,-0.25914,-0.42435,2916,-6.795,-42.395,1.144,170.33,-14.483,1.173,5,44.7788,,,,NaN,,,,0 / 0,158020,2018-08-09 08:45:35:904
1.37407,1.11926,7.45758,1.80519,2.44049,9.325,-0.15334,-1.12415,-2.33333,0.25354,-0.17749,-0.37976,2340,-6.595,-41.507,1.454,170.131,-14.434,-9.477,5,45.6212,,,,NaN,,,,0 / 0,158518,2018-08-09 08:45:36:402
-0.44806,2.0058,5.19875,0.36856,2.11137,9.56957,-1.28023,-0.28498,-4.90452,0.52414,0.47185,-0.27449,1584,-2.937,-43.629,1.691,175.935,-11.442,-2.714,5,46.2302,,,,NaN,,,,0 / 0,159018,2018-08-09 08:45:36:902
-0.5043,1.49313,6.32039,1.33935,2.59512,9.36172,-0.35089,-1.47608,-1.44433,0.35005,0.06908,0.06514,1720,-8.545,-41.808,2.347,167.269,-15.345,-8.142,5,41.342,,,,NaN,,,,0 / 0,159519,2018-08-09 08:45:37:403
-0.24467,1.19762,6.24321,0.19421,2.32087,9.52608,-0.21929,-1.43495,-1.84905,0.96539,-0.7688,-0.50783,2088,-1.819,-41.551,1.721,177.17,-13.69,-1.168,5,47.2848,,,,NaN,,,,0 / 0,160019,2018-08-09 08:45:37:903
-0.5677,1.58765,5.45418,0.55121,2.43585,9.48331,0.22779,-1.56243,-0.57748,0.58095,0.51073,0.61206,1380,-2.388,-42.72,0.818,177.186,-12.497,-4.521,5,48.3181,,,,NaN,,,,0 / 0,160518,2018-08-09 08:45:38:402
-0.10887,2.05904,5.00493,2.02891,1.57167,9.46487,-1.92751,0.2585,-3.74859,0.76889,-0.96021,-0.57422,550,1.845,-41.788,-2.733,183.445,-7.513,-9.909,5,48.9744,,,,NaN,,,,0 / 0,161019,2018-08-09 08:45:38:903
0.63708,0.14238,4.00174,0.67728,2.64197,9.41975,0.13718,-2.72443,-0.4352,1.31299,0.36107,0.19363,320,-0.919,-41.301,3.789,178.186,-15.629,-4.112,5,54.3041,,,,NaN,,,,0 / 0,161518,2018-08-09 08:45:39:402
-0.81178,1.67439,6.44901,0.83317,2.11565,9.5394,-1.39739,-0.08686,-5.54213,-0.18648,-0.73134,-0.69211,880,3.278,-42.169,0.795,184.068,-11.652,-3.071,5,48.0644,,,,NaN,,,,0 / 0,162019,2018-08-09 08:45:39:903
-0.94577,0.58626,7.77164,0.8798,2.83474,9.34669,-1.27904,-1.04322,-1.42276,0.84077,1.47711,0.68211,1250,-7.458,-41.243,3.531,169.65,-16.802,-5.377,5,48.5432,,,,NaN,,,,0 / 0,162519,2018-08-09 08:45:40:403
2.53998,3.27519,7.96664,1.62371,2.76799,9.26672,0.4004,0.01702,-3.02517,0.23969,-0.70955,-0.40399,1344,-10.094,-41.241,4.433,165.331,-14.99,-9.49,5,47.9882,,,,NaN,,,,0 / 0,163018,2018-08-09 08:45:40:902
-2.86302,1.37349,7.25359,0.57588,4.33512,8.77756,-0.24167,-2.57605,-3.32574,0.55429,0.60216,0.40091,1652,-11.024,-38.704,12.163,163.597,-26.235,-3.754,5,53.3845,,,,NaN,,,,0 / 0,163519,2018-08-09 08:45:41:403
-0.39842,3.38466,7.30084,-0.14856,3.53372,9.14665,-0.43573,-0.55569,-2.35616,0.25211,-0.17342,-0.1855,2124,-3.517,-40.785,8.833,174.816,-19.837,1.397,5,56.1133,,,,NaN,,,,0 / 0,164018,2018-08-09 08:45:41:902
-0.89075,3.42294,5.96027,-0.32924,4.23256,8.8401,-2.12254,-4.35754,-1.15758,-0.04639,0.40057,1.29826,2556,-8.939,-38.971,9.784,167.729,-25.569,2.133,5,51.614,,,,NaN,,,,0 / 0,164518,2018-08-09 08:45:42:402
-1.26103,3.51028,7.24162,0.82492,3.14445,9.25215,-1.20104,-0.96981,-0.75535,0.62494,-0.28908,-0.00327,1912,6.372,-39.885,4.659,187.81,-16.967,-5.732,5,49.662,,,,NaN,,,,0 / 0,165018,2018-08-09 08:45:42:902
2.58723,2.43829,6.01889,-0.02544,3.23685,9.25703,-1.33562,-1.91294,-3.38754,0.05623,-0.06795,1.00587,1820,-0.478,-39.288,7.367,180.253,-17.806,1.422,5,56.9432,,,,NaN,,,,0 / 0,165518,2018-08-09 08:45:43:402
-3.34697,1.49493,13.09627,-0.94743,1.38183,9.66247,0.1281,0.27339,2.15913,-0.63831,0.69867,-0.58459,1932,-1.605,-39.732,0.278,177.125,-8.1,5.6,5,55.4913,,,,NaN,,,,0 / 0,166018,2018-08-09 08:45:43:902
0.95891,1.75156,10.91103,-0.4307,2.45905,9.48356,-2.13355,-1.49806,-0.52964,-0.34306,-0.26404,0.32292,2516,-3.897,-41.331,6.462,174.989,-14.849,3.604,5,57.5619,,,,NaN,,,,0 / 0,166519,2018-08-09 08:45:44:403
0.17287,3.52823,9.92517,-0.87152,1.78086,9.60413,-0.8317,0.58668,2.88802,-0.23962,0.368,0.3551,3184,-3.099,-42.728,1.413,175.985,-11.133,1.348,5,55.1485,,,,NaN,,,,0 / 0,167018,2018-08-09 08:45:44:902
-1.02953,1.96512,8.94412,-0.98,2.52005,9.42652,-0.59819,-1.32564,0.29937,-0.49455,-0.04779,-0.31827,4484,-6.419,-41.515,1.749,172.051,-14.891,5.935,5,53.797,,,,NaN,,,,0 / 0,167518,2018-08-09 08:45:45:402
-0.65685,4.64328,10.79616,-1.11344,1.95157,9.54578,-0.82035,1.78507,2.78312,0.16374,0.11795,0.33698,3808,-0.223,-40.639,0.252,180,-11.479,6.653,5,56.6956,,,,NaN,,,,0 / 0,168018,2018-08-09 08:45:45:902
-0.57907,2.94258,12.92697,-0.72572,2.92977,9.3306,-0.4244,-0.40095,0.77769,-0.99628,0.0591,-0.3427,3884,-1.596,-41.046,6.16,177.785,-20.547,4.077,5,52.0053,,,,NaN,,,,0 / 0,168518,2018-08-09 08:45:46:402
0.64485,2.68416,13.69028,0.25941,2.07655,9.58076,-0.63509,1.55193,2.14828,-0.08182,-0.00787,0.42717,2008,3.828,-40.939,-1.253,185.764,-12.225,-1.551,5,55.3995,,,,NaN,,,,0 / 0,169019,2018-08-09 08:45:46:903
6.47676,-2.35274,13.01849,4.24752,0.91103,8.79199,-1.9729,-1.4664,-0.79511,-2.34689,-1.5444,0.47136,1396,7.864,-38.971,-11.577,198.037,-5.33,-25.786,5,57.7973,,,,NaN,,,,0 / 0,169519,2018-08-09 08:45:47:403
4.89571,-2.42152,14.76706,4.89907,-1.66589,8.33032,1.04328,0.66034,4.79846,0.01286,-0.40576,0.70633,1452,-2.93,-38.498,-15.935,188.129,7.6,-30.998,5,56.5504,,,,NaN,,,,0 / 0,170018,2018-08-09 08:45:47:902
8.74756,-2.91386,10.27452,6.74742,-0.53505,7.09623,-1.99092,0.56512,-3.65038,-2.56313,-0.2616,0.65869,3196,-15.184,-38.414,-0.507,164.666,-3.165,-43.266,5,55.9399,,,,NaN,,,,0 / 0,170519,2018-08-09 08:45:48:403
7.35373,-2.40538,12.97902,7.09954,-1.53239,6.58929,-0.40031,0.06454,2.4009,-1.03232,-0.00687,0.26001,3736,-12.785,-39.496,-7.037,174.483,5.084,-46.487,5,41.3888,,,,NaN,,,,0 / 0,171019,2018-08-09 08:45:48:903
13.4973,-3.99481,6.36047,6.41426,-0.72963,7.38209,4.44548,-1.62957,-1.47051,-2.13043,1.79334,-1.33026,3504,-16.267,-38.025,-4.628,167.273,4.267,-40.987,5,56.4519,,,,NaN,,,,0 / 0,171519,2018-08-09 08:45:49:403
2.64226,1.27,9.54233,2.8922,2.21005,9.10611,1.33538,-0.15307,-1.23887,0.48506,0.77971,-0.64262,880,4.024,-40.039,-1.532,186.443,-9.523,-20.334,5,53.8338,,,,NaN,,,,0 / 0,172018,2018-08-09 08:45:49:902
5.68056,0.7711,12.84621,3.76149,1.30867,8.96153,-1.5336,-1.22292,1.54176,-1.14389,-0.43893,0.74686,880,1.494,-40.807,-6.848,185.21,-7.669,-22.77,5,49.6676,,,,NaN,,,,0 / 0,172518,2018-08-09 08:45:50:402
3.87218,1.01457,15.53275,3.92626,0.06093,8.98616,1.2111,1.74129,3.17375,-0.83908,0.02002,0.16389,550,3.992,-38.655,-10.957,192.01,-2.954,-24.452,5,42.9571,,,,NaN,,,,0 / 0,173019,2018-08-09 08:45:50:903
8.26181,0.38586,13.50365,3.89819,2.03642,8.76513,0.52591,-1.2155,-0.91713,-1.59532,-0.02193,0.32314,550,-2.017,-40.541,-3.87,179.705,-11.985,-23.977,5,51.9139,,,,NaN,,,,0 / 0,173518,2018-08-09 08:45:51:402
3.996,3.58925,10.37442,3.82857,1.71742,8.86357,-1.62798,1.37699,3.0083,-0.23006,0.09882,0.41884,1250,8.611,-38.452,-8.026,197.282,-10.086,-23.362,5,45.565,,,,NaN,,,,0 / 0,174018,2018-08-09 08:45:51:902
1.53439,1.50272,9.03085,-0.22877,2.33704,9.52136,-0.15462,-1.08011,-2.7646,-1.17485,-0.42409,-0.21339,550,3.664,-40.669,0.229,185.738,-13.787,1.376,5,43.4766,,,,NaN,,,,0 / 0,174519,2018-08-09 08:45:52:403
0.061,1.07199,14.01929,1.26166,-0.0166,9.72514,-2.02026,0.42463,4.45738,-0.78716,-0.01604,0.37994,320,14.116,-36.639,-11.275,202.698,-2.336,-7.451,5,43.5423,,,,NaN,,,,0 / 0,175019,2018-08-09 08:45:52:903
3.40916,0.15436,10.37024,1.53513,1.73896,9.52837,-0.44623,-1.92287,-0.50963,-0.55768,-0.19418,0.34105,550,4.703,-40.616,-2.728,187.684,-10.911,-8.12,5,44.1246,,,,NaN,,,,0 / 0,175519,2018-08-09 08:45:53:403
2.61833,-0.11185,17.3501,3.15824,1.02579,9.22733,-1.18995,1.15011,4.49535,-0.81363,-0.05165,0.36223,550,9.65,-38.722,-9.81,198.418,-6.004,-18.895,5,43.3904,,,,NaN,,,,0 / 0,176019,2018-08-09 08:45:53:903
2.86241,-2.44186,11.2867,2.44362,-0.58237,9.47945,2.67821,-0.04472,1.3648,-2.17218,-0.59756,0.0177,880,-4.172,-40.428,-8.58,177.186,-2.703,-12.591,5,43.4028,,,,NaN,,,,0 / 0,176519,2018-08-09 08:45:54:403
4.26819,-1.24545,13.99716,3.5692,-1.05227,9.07325,1.38658,-1.01424,5.2065,-0.69614,-0.30109,0.49234,880,-0.427,-37.97,-13.577,188.022,5.392,-23.143,5,43.3057,,,,NaN,,,,0 / 0,177019,2018-08-09 08:45:54:903
2.84805,0.55215,10.9176,3.42077,1.14309,9.11932,2.50499,-0.85444,2.88288,-0.36954,0.38754,-1.19954,880,3.625,-40.239,-6.259,188.484,-6.694,-20.562,5,42.5761,,,,NaN,,,,0 / 0,177519,2018-08-09 08:45:55:403
1.12701,1.13901,11.56007,2.47026,1.62498,9.35027,0.02751,0.00178,5.59082,0.29182,1.61131,-0.18835,880,15.218,-36.769,-5.377,203.482,-9.538,-14.799,5,44.7001,,,,NaN,,,,0 / 0,178018,2018-08-09 08:45:55:902
4.25145,2.55853,11.18738,1.9875,1.54592,9.47789,1.07048,0.02795,4.72291,-0.10442,-0.54176,-0.27957,1250,10.736,-38.803,-6.273,197.559,-9.774,-11.276,5,40.5746,,,,NaN,,,,0 / 0,178518,2018-08-09 08:45:56:402
0.88773,2.51248,12.21629,2.12367,1.50966,9.45417,-0.44931,0.99226,6.37864,-0.09036,-0.10114,-0.14275,1396,17.494,-36.409,-9.221,208.077,-8.855,-12.66,5,38.2376,,,,NaN,,,,0 / 0,179018,2018-08-09 08:45:56:902
6.24765,3.12683,12.68051,1.62393,2.21882,9.41329,-1.22388,-0.42791,2.8948,-1.13107,-0.41104,0.53897,1250,19.121,-35.88,-6.563,210.184,-13.077,-9.788,5,51.2429,,,,NaN,,,,0 / 0,179518,2018-08-09 08:45:57:402
1.28732,2.0752,8.31181,2.82596,1.98412,9.17865,-1.42907,-0.15864,7.22474,0.91917,0.09045,1.17059,880,27.414,-28.035,-14.146,228.767,-12.076,-16.433,5,46.5042,,,,NaN,,,,0 / 0,180019,2018-08-09 08:45:57:903
5.44008,3.39185,7.93256,0.9695,1.51165,9.64082,2.32652,0.55227,5.27761,0.55103,-0.52202,-0.15842,2264,18.213,-37.071,-6.285,207.266,-8.867,-5.742,5,43.8746,,,,NaN,,,,0 / 0,180518,2018-08-09 08:45:58:402
0.18604,3.26563,4.85239,0.0816,2.55504,9.4676,-0.8755,-0.87854,3.38895,0.43761,0.61397,1.22191,3060,19.286,-37.117,-4.52,208.336,-10.683,-2.247,5,43.6582,,,,NaN,,,,0 / 0,181018,2018-08-09 08:45:58:902
-5.28038,0.18427,15.86954,-2.71623,1.50057,9.30273,3.03801,2.17057,0.7142,-1.79895,-0.4247,-2.36465,7180,13.029,-39.781,-3.056,196.807,-8.802,16.277,5,39.513,,,,NaN,,,,0 / 0,181518,2018-08-09 08:45:59:402
-1.29813,2.45924,15.82408,-1.24413,1.03601,9.67208,2.09736,3.90766,4.12869,0.358,-0.35057,-0.17511,6988,16.774,-38.289,-4.527,203.346,-4.451,8.265,5,44.7265,,,,NaN,,,,0 / 0,182018,2018-08-09 08:45:59:902
-0.2034,2.31506,12.95987,0.62288,2.62076,9.42942,-0.69762,-0.16678,4.23937,-0.92827,0.09148,-0.24699,4760,17.679,-38.028,-3.05,206.681,-15.5,-3.779,5,45.1433,,,,NaN,,,,0 / 0,182519,2018-08-09 08:46:00:403
1.38603,4.96452,11.08868,0.33303,2.42116,9.49724,1.60519,3.05765,3.12514,-0.06532,0.16885,0.22031,6648,12.321,-40.408,-1.291,197.365,-15.42,-3.725,5,44.2012,,,,NaN,,,,0 / 0,183019,2018-08-09 08:46:00:903
1.31006,1.85684,10.74052,0.7296,2.63483,9.41784,-0.81778,-0.91684,0.82566,-1.31656,0.30345,-0.50478,7896,12.833,-40.358,-3.952,199.379,-15.586,-4.43,5,44.5423,,,,NaN,,,,0 / 0,183518,2018-08-09 08:46:01:402
0.3625,3.56293,9.8181,0.01496,1.53547,9.68569,0.02661,1.9928,2.42675,0.16293,0.31525,0.25594,9224,17.834,-37.976,-5.708,206.202,-9.008,-0.088,5,47.525,,,,NaN,,,,0 / 0,184018,2018-08-09 08:46:01:902
-0.81297,0.54498,10.5862,-1.56209,2.13067,9.44407,-1.34489,-1.73351,-0.28739,-0.74623,-0.20538,-0.02913,10928,15.198,-38.963,-0.101,201.548,-13.089,10.228,5,43.0911,,,,NaN,,,,0 / 0,184518,2018-08-09 08:46:02:402
-1.98605,0.98944,10.07173,-1.22081,1.60303,9.59741,-0.36131,0.95077,-0.2649,-0.13516,0.49301,0.41537,10444,16.794,-38.35,-1.576,204.728,-12.747,6.302,5,46.1978,,,,NaN,,,,0 / 0,185020,2018-08-09 08:46:02:904
2.77507,0.67001,15.33894,0.06269,1.4882,9.69287,1.90051,-0.68315,3.94365,-1.04901,-0.19012,-0.32884,9420,10.712,-40.665,-2.763,195.732,-13.249,-1.282,5,45.3555,,,,NaN,,,,0 / 0,185518,2018-08-09 08:46:03:402
-0.97928,1.13721,15.85698,0.72207,0.69385,9.75539,-1.12849,1.99846,3.09071,-0.44099,0.24541,-0.02364,8468,17.477,-37.007,-9.233,205.852,-4.057,-4.233,5,45.9531,,,,NaN,,,,0 / 0,186019,2018-08-09 08:46:03:903
-0.20399,2.3067,15.76486,-0.19488,2.3004,9.53103,0.81413,0.94359,3.37298,-0.64787,0.0811,-0.41988,8880,12.334,-40.123,-0.696,197.531,-16.868,0.445,5,44.7598,,,,NaN,,,,0 / 0,186519,2018-08-09 08:46:04:403
-0.8734,1.62534,14.36745,-0.4633,1.82348,9.62448,-0.83201,0.96106,3.15388,-0.57884,-0.09686,0.39398,9660,17.319,-38.014,-3.639,204.734,-10.716,2.756,5,47.8926,,,,NaN,,,,0 / 0,187019,2018-08-09 08:46:04:903
1.01933,1.25146,13.38879,0.1443,1.53225,9.68513,0.41674,-0.42517,6.21876,-0.96797,0.29898,-0.28262,7948,13.373,-39.104,-7.181,199.548,-9.467,-2.402,5,49.1461,,,,NaN,,,,0 / 0,187518,2018-08-09 08:46:05:402
2.7338,1.75096,7.57782,1.46577,1.58054,9.56681,-1.91673,1.80608,3.49086,1.29364,-3.12306,0.57481,7124,10.347,-40.614,-5.124,194.93,-9.275,-8.711,5,45.1611,,,,NaN,,,,0 / 0,188018,2018-08-09 08:46:05:902
8.32224,2.03331,17.9848,4.83521,2.67559,8.10138,1.12447,0.80889,-3.24242,-2.02904,0.99881,0.63324,1660,5.4,-40.575,-5.095,190.558,-22.818,-34.375,5,53.283,,,,NaN,,,,0 / 0,188519,2018-08-09 08:46:06:403
5.16132,3.7675,9.53694,3.56992,2.65762,8.7386,3.13018,2.78411,-0.31805,0.42316,0.38937,0.07758,3524,6.833,-39.691,-5.086,192.556,-16.618,-23.946,5,46.9342,,,,NaN,,,,0 / 0,189019,2018-08-09 08:46:06:903
1.48892,1.96991,12.00453,0.943,3.03914,9.27603,0.36158,-0.37078,0.98262,-1.43527,1.29752,-0.88147,4496,8.315,-38.594,-0.94,192.664,-23.617,-9.266,5,48.914,,,,NaN,,,,0 / 0,189519,2018-08-09 08:46:07:403
7.42493,1.54518,26.70903,-0.52084,2.5151,9.46432,-3.93433,0.39933,0.95644,-0.82585,1.41298,0.75073,9380,19.861,-35.313,-5.377,212.22,-18.2,1.319,5,53.1539,,,,NaN,,,,0 / 0,190019,2018-08-09 08:46:07:903
-0.9362,-4.24367,16.75908,-3.39381,-0.54691,9.18441,3.96081,-3.47965,7.0888,0.32706,1.75812,-0.19324,8984,3.819,-37.048,-16.539,176.768,3.197,20.28,5,53.1129,,,,NaN,,,,0 / 0,190519,2018-08-09 08:46:08:403
-4.50809,-9.69571,11.14851,-5.31951,0.63585,8.21395,-4.52451,-5.34208,-3.56004,-3.78404,-0.94148,2.04739,3788,-11.836,-34.88,-14.342,151.9,-10.617,36.253,5,47.2281,,,,NaN,,,,0 / 0,191018,2018-08-09 08:46:08:902
1.98962,2.51607,-4.66267,0.07659,4.28784,8.81924,-2.73831,-7.15301,-6.30419,5.25977,-4.0361,-4.51855,10624,-8.052,-37.361,3.607,168.137,-7.168,2.408,5,43.3369,,,,NaN,,,,0 / 0,191518,2018-08-09 08:46:09:402
-5.14638,1.65524,10.16985,-0.61373,2.32873,9.50635,-9.04309,2.41792,-3.73605,-3.22775,-2.19211,0.33311,4452,33.397,-18.716,-5.15,242.789,-13.737,3.694,5,50.4937,,,,NaN,,,,0 / 0,192019,2018-08-09 08:46:09:903
4.61514,0.94757,9.8205,0.76969,0.06601,9.77618,4.44356,-1.33338,-2.27715,1.2859,1.1226,-0.45815,16292,13.927,-24.91,-7.477,210.164,-0.386,-4.502,5,51.431,,,,NaN,,,,0 / 0,192519,2018-08-09 08:46:10:403
-3.22734,1.04507,6.77263,0.0038,1.03012,9.7524,-1.33407,0.60118,-5.44458,-0.40639,-0.85698,0.27058,12148,26.157,-19.173,-0.945,234.923,-11.637,2.043,5,48.4727,,,,NaN,,,,0 / 0,193018,2018-08-09 08:46:10:902
1.31545,-1.60619,14.19217,-3.4009,-3.17202,8.6338,5.25965,1.47089,3.77821,-0.12111,1.14806,0.3726,12468,15.831,-25.122,-12.512,198.959,18.872,21.5,5,51.1403,,,,NaN,,,,0 / 0,193518,2018-08-09 08:46:11:402
-7.83531,-4.29871,10.14771,-4.74504,0.34706,8.57523,1.0313,-2.20449,-6.14928,-1.49249,0.94994,-0.02832,4856,31.67,-9.702,15.44,254.303,-2.028,28.958,5,57.3902,,,,NaN,,,,0 / 0,194019,2018-08-09 08:46:11:903
-9.30032,-1.41415,11.44522,-8.39347,-2.13476,4.6003,0.37095,1.92907,4.70594,1.27348,0.57834,-0.38545,4392,21.725,-20.473,22.681,235.417,13.803,60.412,5,57.9988,,,,NaN,,,,0 / 0,194518,2018-08-09 08:46:12:402
-10.62595,-3.45464,8.17363,-6.95061,1.29634,6.79551,-1.44952,-3.97236,-2.99682,-0.65175,1.45798,-0.88657,3536,28.149,-1.262,29.196,267.076,-12.908,39.184,5,51.2783,,,,NaN,,,,0 / 0,195018,2018-08-09 08:46:12:902
-8.58067,-2.67995,11.34532,-7.14905,-2.90837,6.05003,-0.15816,0.45085,6.09929,0.35596,0.52397,-0.18999,6224,29.376,-12.183,22.789,249.648,19.032,48.743,5,43.5815,,,,NaN,,,,0 / 0,195518,2018-08-09 08:46:13:402
-7.38188,-2.43709,5.55289,-5.23898,1.9001,8.06927,0.25168,-4.24502,-6.11614,0.01408,0.58688,0.01079,3860,34.827,6.96,18.381,281.033,-11.172,32.994,5,54.6908,,,,NaN,,,,0 / 0,196018,2018-08-09 08:46:13:902
-7.95854,-1.38962,11.33695,-6.32692,-1.17111,7.40061,1.68933,1.11607,2.86629,0.25089,1.16904,-0.15395,5880,33.713,-2.02,20.291,266.272,7.826,36.599,5,46.0903,,,,NaN,,,,0 / 0,196519,2018-08-09 08:46:14:403
-6.52823,-4.44646,9.91141,-2.90729,-1.97023,9.15621,-1.58276,-1.32284,-0.55488,-1.1604,-0.10786,0.41821,8896,39.908,3.688,1.164,272.5,11.59,17.616,5,47.5189,,,,NaN,,,,0 / 0,197019,2018-08-09 08:46:14:903
0.40916,1.40161,9.02667,-0.73191,1.71547,9.62766,1.15228,-0.52984,-0.80046,1.56892,-0.13148,1.01686,11844,34.177,-9.544,-6.133,254.763,-5.848,2.705,5,47.9397,,,,NaN,,,,0 / 0,197518,2018-08-09 08:46:15:402
-1.78146,2.67818,11.63783,-0.33113,3.94927,8.97017,0.29823,-0.40469,-4.96877,0.1953,0.96358,0.17021,15828,33.26,-12.646,0.017,250.916,-23.748,2.114,5,46.5353,,,,NaN,,,,0 / 0,198019,2018-08-09 08:46:15:903
0.40378,5.342,9.49925,-0.59159,4.96089,8.4386,0.21839,0.13001,-0.56177,0.1114,0.05402,0.13254,21474.836,29.935,-18.657,3.471,240.801,-30.389,4.01,5,51.3362,,,,NaN,,,,0 / 0,198518,2018-08-09 08:46:16:402
-1.05525,3.91586,8.76764,-0.44749,5.12523,8.34878,-1.43411,-0.74783,-0.40909,-0.65073,0.07437,0.4341,21474.836,30.508,-17.499,4.965,243.346,-34.104,3.888,5,48.1712,,,,NaN,,,,0 / 0,199018,2018-08-09 08:46:16:902
-0.12204,4.22095,11.93933,-2.7172,3.37384,8.79798,1.17824,1.14619,3.8774,-1.27768,0.58179,-0.46162,13416,15.143,-30.878,8.649,209.117,-23,15.839,5,48.9193,,,,NaN,,,,0 / 0,199519,2018-08-09 08:46:17:403
-7.4064,-2.30608,11.22687,-4.74051,0.8919,8.5383,0.97351,-1.17878,-4.95512,-1.2679,1.79028,0.14536,13496,23.72,-27.043,7.487,223.438,-9.046,22.074,5,45.0544,,,,NaN,,,,0 / 0,200018,2018-08-09 08:46:17:902
0.16809,0.72623,14.54752,-2.84781,0.43579,9.37392,2.6313,0.68492,2.14504,0.4142,0.06073,0.05396,14136,8.958,-33.228,-5.534,191.897,-2.547,16.899,5,47.4048,,,,NaN,,,,0 / 0,200519,2018-08-09 08:46:18:403
-2.18825,3.64488,7.93973,-1.18549,4.76405,8.48934,-0.24438,-1.53256,-1.38176,0.01918,1.00064,0.46973,18612,16.028,-31.548,11.879,207.272,-28.329,5.467,5,45.5273,,,,NaN,,,,0 / 0,201018,2018-08-09 08:46:18:902
-0.78307,6.47978,9.88629,-1.59029,4.52214,8.55521,0.94067,1.59269,1.6764,0.02345,0.21019,-0.47383,17360,6.548,-35.655,12.154,192.906,-26.349,7.512,5,49.6836,,,,NaN,,,,0 / 0,201519,2018-08-09 08:46:19:403
-3.91168,5.32404,9.28749,-2.09641,5.09804,8.11082,-0.10277,-1.42967,1.27695,0.18614,-0.17932,-0.16371,20960,18.593,-29.884,17.212,215.535,-31.323,14.492,5,47.3519,,,,NaN,,,,0 / 0,202019,2018-08-09 08:46:19:903
0.21056,3.93143,14.06416,-0.93146,4.94779,8.41559,0.72932,1.09936,0.92826,-0.76639,-0.07834,0.02483,21474.836,14.745,-33.977,14.5,204.674,-30.3,6.316,5,50.4719,,,,NaN,,,,0 / 0,202519,2018-08-09 08:46:20:403
-3.3374,1.49135,14.22148,-1.21093,3.83083,8.94588,-0.71699,-0.42181,0.99749,-1.71506,-0.25201,-0.08167,21474.836,15.771,-34.534,12.122,206.502,-29.773,8.101,5,50.6543,,,,NaN,,,,0 / 0,203018,2018-08-09 08:46:20:902
-3.36133,1.80959,14.01929,-3.76145,1.06503,8.99375,0.01026,0.84065,6.03716,0.03304,-0.19012,-0.92647,15332,23.431,-31.544,8.884,217.888,-5.815,25.078,5,57.3853,,,,NaN,,,,0 / 0,203519,2018-08-09 08:46:21:403
-4.49911,1.1725,10.96187,-2.28615,0.31857,9.53113,-0.72255,-2.07963,0.35491,-1.32939,0.1823,-0.12218,21474.836,28.241,-28.462,2.121,224.853,-1.862,13.488,5,54.4081,,,,NaN,,,,0 / 0,204018,2018-08-09 08:46:21:902
-2.73082,-0.55511,16.36247,-4.16507,0.09015,8.87775,1.48599,0.32224,1.57463,-0.44814,0.40424,-0.42944,14980,17.998,-34.998,4.718,207.982,-3.126,23.719,5,64.7838,,,,NaN,,,,0 / 0,204518,2018-08-09 08:46:22:402
-8.40781,-4.14197,15.76187,-5.42301,-1.62152,8.00825,-2.18799,-2.09215,1.50651,-3.60283,0.83856,-0.20934,16468,25.226,-29.71,5.954,217.747,9.518,34.105,5,53.122,,,,NaN,,,,0 / 0,205018,2018-08-09 08:46:22:902
-8.46162,-4.9286,11.52118,-5.91747,-3.26167,7.10742,-1.86551,-2.26556,6.66651,0.96193,0.03345,-0.92343,12340,21.783,-30.405,-2.603,201.871,20.885,43.983,5,44.2757,,,,NaN,,,,0 / 0,205519,2018-08-09 08:46:23:403
-9.83452,-0.85005,11.30583,-5.57478,0.39167,8.05846,0.32749,-1.63736,-1.08403,-1.32961,-0.57191,-0.58521,16764,28.484,-23.358,15.207,234.11,-2.289,34.675,5,44.7268,,,,NaN,,,,0 / 0,206019,2018-08-09 08:46:23:903
-3.01617,1.15874,12.78041,-5.00543,0.35657,8.42549,2.10711,0.08426,3.46661,0.07292,-1.43913,-0.38567,13820,21.021,-29.14,8.942,217.76,-1.979,35.556,5,65.7793,,,,NaN,,,,0 / 0,206518,2018-08-09 08:46:24:402
0.68852,-0.25841,9.28151,3.26025,1.49033,9.12798,-3.43165,-1.63597,-0.72091,-1.89568,-1.16464,1.94638,21474.836,24.538,-24.275,-11.662,229.83,-8.741,-19.655,5,41.5471,,,,NaN,,,,0 / 0,207018,2018-08-09 08:46:24:902
7.61276,-1.98962,13.77881,1.46892,-0.06074,9.69582,4.8962,-0.82203,1.8441,0.17699,0.10451,-0.58867,21474.836,5.93,-34.081,-6.419,191.53,-1.324,-9.536,5,51.7699,,,,NaN,,,,0 / 0,207518,2018-08-09 08:46:25:402
-1.23352,-0.74297,7.59695,0.93112,1.41623,9.65907,-3.21967,-1.28961,-2.8456,-2.07831,-0.96815,0.9519,21474.836,22.391,-28.053,-1.088,218.851,-13.144,-3.421,5,42.3007,,,,NaN,,,,0 / 0,208018,2018-08-09 08:46:25:902
2.3958,-3.89012,15.78938,-0.58035,-0.8846,9.74941,0.89401,0.35495,4.64108,0.49951,-0.82785,-0.10793,17868,12.845,-32.291,-9.084,200.803,5.175,3.407,5,47.2916,,,,NaN,,,,0 / 0,208518,2018-08-09 08:46:26:402
-2.7386,0.83331,12.3485,-1.13105,1.087,9.68037,0.46415,-1.97238,4.20581,-0.92378,0.32808,0.27629,18708,18.254,-31.989,3.294,209.976,-11.278,6.181,5,53.5728,,,,NaN,,,,0 / 0,209019,2018-08-09 08:46:26:903
0.04546,1.05943,10.5826,-1.44203,1.47085,9.58789,0.57916,-0.71757,4.31541,0.05725,0.38916,-0.51781,16576,10.141,-37.274,2.359,195.54,-8.159,9.888,5,50.5855,,,,NaN,,,,0 / 0,209518,2018-08-09 08:46:27:402
-2.68895,2.32344,9.79117,-1.0246,2.98074,9.28632,0.65575,-1.74624,-0.72075,-1.05003,0.55594,0.25084,18996,16.837,-33.588,9.18,207.372,-17.695,6.296,5,48.9755,,,,NaN,,,,0 / 0,210018,2018-08-09 08:46:27:902
0.32362,-0.29968,15.85159,-3.32441,1.78124,9.0524,3.89195,0.92207,0.25776,-0.27342,0.74998,-0.21036,15108,5.585,-37.657,8.284,192.339,-10.465,20.165,5,50.019,,,,NaN,,,,0 / 0,210519,2018-08-09 08:46:28:403
-2.93481,-0.65263,17.72279,-2.44261,2.10417,9.26156,-2.26157,0.3553,-1.58639,-2.61139,0.61336,1.01361,16260,15.781,-33.913,10.951,208.08,-20.054,14.559,5,50.1693,,,,NaN,,,,0 / 0,211018,2018-08-09 08:46:28:902
-0.97629,0.19742,14.6516,-1.78549,0.86403,9.60395,1.3613,-1.32328,6.79162,0.19897,-1.41917,-1.19363,14168,17.847,-33.452,2.089,208.874,-5.055,10.532,5,60.1083,,,,NaN,,,,0 / 0,211518,2018-08-09 08:46:29:402
-4.38068,1.6355,10.30504,-1.55848,1.17794,9.6101,-2.12513,-0.66845,-1.9309,-0.89406,1.10835,1.31944,18996,23.552,-31.075,0.328,218.008,-6.899,9.212,5,54.0993,,,,NaN,,,,0 / 0,212019,2018-08-09 08:46:29:903
-5.1703,0.80879,11.39856,-2.93708,0.88026,9.31499,2.83425,-1.20139,8.55104,1.76399,-0.26424,-1.3042,13952,14.934,-36.4,1.462,202.345,-5.15,17.5,5,55.7448,,,,NaN,,,,0 / 0,212518,2018-08-09 08:46:30:402
-6.21776,0.74837,11.30405,-4.52929,1.37108,8.5893,-3.23211,0.8376,2.52271,-2.005,1.71739,1.41373,14072,12.761,-38.493,2.617,199.628,-10.527,21.485,5,50.341,,,,NaN,,,,0 / 0,213018,2018-08-09 08:46:30:902
-7.98785,1.34119,8.30045,-5.2874,2.49943,7.87189,-2.55503,-1.0932,1.67529,1.68254,0.23259,-0.85603,11188,17.076,-38.087,10.277,208.187,-12.933,34.95,5,67.1814,,,,NaN,,,,0 / 0,213519,2018-08-09 08:46:31:403
-4.7067,1.51587,4.83983,-5.43912,1.61849,7.99793,-5.31197,0.71479,0.38552,-2.02496,-0.77328,1.39601,10696,21.474,-36.456,1.717,208.658,-9.5,34.218,5,64.278,,,,NaN,,,,0 / 0,214018,2018-08-09 08:46:31:902
-5.19005,0.94997,5.88429,-5.03098,1.9727,8.1834,-2.57079,-0.85066,3.61499,1.22908,-1.76064,-0.07452,11568,20.963,-34.895,-1.5,206.488,-8.307,36.431,5,42.3667,,,,NaN,,,,0 / 0,214519,2018-08-09 08:46:32:403
3.10588,-2.03748,9.14093,0.63346,-0.2952,9.78172,-1.09609,-1.0379,1.03149,1.18613,1.08861,1.15492,13188,10.474,-24.17,-26.051,205.224,1.725,-3.705,5,41.7072,,,,NaN,,,,0 / 0,215018,2018-08-09 08:46:32:902
0.39481,2.88994,10.49886,-0.73309,3.60618,9.09002,-0.50425,-1.01305,0.67686,0.47528,-1.88954,-0.0835,9356,12.917,-28.95,-11.977,206.994,-20.347,6.902,5,65.8169,,,,NaN,,,,0 / 0,215518,2018-08-09 08:46:33:402
-3.35715,3.06642,7.82846,-2.45304,3.22596,8.93007,-0.13897,0.30083,0.36034,-0.40678,-0.7849,0.10423,8836,15.814,-20.007,-12.715,221.875,-19.205,15.36,5,60.4509,,,,NaN,,,,0 / 0,216019,2018-08-09 08:46:33:903
1.194,2.55974,8.08868,-0.04181,1.32391,9.71678,2.3511,0.89636,3.32823,-0.6214,1.06519,0.1808,7052,10.628,-14.824,-16.135,220.727,-7.759,0.247,5,51.2585,,,,NaN,,,,0 / 0,216518,2018-08-09 08:46:34:402
-0.66461,1.00919,12.47652,-1.42841,2.08295,9.47583,1.15565,0.48705,0.94803,-0.53812,1.36737,0.9743,5544,3.766,-16.769,-5.795,191.368,-12.263,8.572,5,41.7871,,,,NaN,,,,0 / 0,217018,2018-08-09 08:46:34:902
0.09091,3.49175,4.5497,-2.8998,3.91069,8.51282,3.95364,0.16894,-0.69848,0.68704,0.27454,-0.12483,9348,-3.21,-15.367,1.358,170.463,-21.636,20.347,5,64.2518,,,,NaN,,,,0 / 0,217519,2018-08-09 08:46:35:403
-1.0714,2.41975,9.43225,-1.86894,2.35899,9.33342,-0.81844,2.37385,1.27626,-0.93498,0.30936,0.8275,7592,0.278,-16.563,0.136,180,-17.396,11.816,5,44.9742,,,,NaN,,,,0 / 0,218019,2018-08-09 08:46:35:903
1.71326,2.55974,10.65738,-1.17382,1.90558,9.54784,0.20412,0.10306,3.14226,0.03731,-0.11418,-0.53003,9592,-4.72,-18.636,1.308,165.67,-11.205,7.009,5,46.9577,,,,NaN,,,,0 / 0,218519,2018-08-09 08:46:36:403
0.88354,4.29334,8.8502,1.14686,5.01814,8.34706,-2.18402,-1.14117,5.98134,2.17755,0.10085,0.87657,6152,10.361,-18.271,6.839,206.111,-26.032,-3.455,5,61.0405,,,,NaN,,,,0 / 0,219019,2018-08-09 08:46:36:903
8.41017,4.74139,5.46616,6.07576,3.41088,6.90083,1.86399,1.20515,0.18154,0.57262,0.60989,-0.54469,7784,14.322,-18.343,-5.884,217.785,-15.587,-41.67,5,66.3671,,,,NaN,,,,0 / 0,219519,2018-08-09 08:46:37:403
5.58723,6.12085,3.3802,5.81614,4.30093,6.62155,1.91412,2.16562,5.14994,-0.8232,3.33495,0.9511,3176,17.264,-20.461,-5.644,218.657,-26.013,-41.295,5,62.0842,,,,NaN,,,,0 / 0,220019,2018-08-09 08:46:37:903
-0.4726,2.91806,11.42966,0.76824,2.53374,9.44248,4.0475,-0.67042,4.01518,0.07945,0.34642,0.19281,14312,14.879,-25.984,2.832,209.304,-14.973,-4.651,5,66.5472,,,,NaN,,,,0 / 0,220518,2018-08-09 08:46:38:402
2.75354,2.75235,10.79855,-0.42483,2.13729,9.56148,-2.30177,0.62917,2.68113,0.20222,-0.79263,1.21947,12816,8.977,-29.26,4.874,197.762,-12.699,4.49,5,66.009,,,,NaN,,,,0 / 0,221019,2018-08-09 08:46:38:903
3.74715,3.32784,11.52597,0.98473,2.14515,9.51835,2.18358,0.82964,4.2045,-0.7784,0.04791,0.62387,13024,10.464,-31.879,0.978,197.268,-12.635,-5.907,5,61.221,,,,NaN,,,,0 / 0,221519,2018-08-09 08:46:39:403
-0.19084,5.13622,7.65199,-0.56778,4.2908,8.79983,0.83579,1.28737,1.49602,0.3195,0.942,0.78188,11632,-0.444,-33.858,14.589,181.49,-25.947,3.692,5,59.0462,,,,NaN,,,,0 / 0,222018,2018-08-09 08:46:39:902
0.51146,3.02873,13.38161,-0.50841,2.72502,9.40671,1.09014,1.32416,3.10187,-0.45158,0.24582,-0.2462,13052,0.995,-37.621,8.311,181.941,-19.105,2.192,5,43.5505,,,,NaN,,,,0 / 0,222518,2018-08-09 08:46:40:402
-1.11029,2.98148,11.26814,-0.23229,3.25475,9.24787,-1.08001,0.34984,3.46148,0.40422,0.25458,0.64769,13668,4.021,-37.399,10.956,186.333,-19.384,1.439,5,64.2806,,,,NaN,,,,0 / 0,223019,2018-08-09 08:46:40:903
-0.85904,1.75215,14.04681,-0.46013,2.54733,9.45885,-0.34524,-0.34804,4.79426,-0.81119,0.47876,-0.28487,13060,-3.436,-37.866,7.446,175.828,-15.258,1.543,5,47.6053,,,,NaN,,,,0 / 0,223520,2018-08-09 08:46:41:404
-0.91707,3.29852,12.33354,0.19474,2.55098,9.46705,-0.39455,1.04821,1.9012,-0.64543,0.50606,-0.21747,13124,-1.154,-37.856,5.957,178.318,-15.078,-1.178,5,46.2609,,,,NaN,,,,0 / 0,224018,2018-08-09 08:46:41:902
0.4648,2.03032,11.96446,0.13263,2.63791,9.44427,-1.13082,-1.33947,3.28926,-0.14839,0.28574,0.07858,13900,-2.348,-37.338,10.402,176.38,-16.521,-2.431,5,66.0485,,,,NaN,,,,0 / 0,224519,2018-08-09 08:46:42:403
-0.25545,2.90012,12.37723,0.38613,2.87141,9.3689,-0.69207,1.52754,4.44544,0.08597,0.25316,0.33046,13288,-1.917,-35.301,12.799,176.108,-17.026,-2.36,5,65.8393,,,,NaN,,,,0 / 0,225019,2018-08-09 08:46:42:903
-0.37509,2.51727,14.2831,-0.15696,2.73943,9.41495,0.7495,0.39304,4.36154,-1.30475,0.4303,-0.33984,12764,-7.401,-34.918,10.771,168.741,-19.964,-1.492,5,49.3405,,,,NaN,,,,0 / 0,225519,2018-08-09 08:46:43:403
-0.51147,2.4371,16.80275,0.56645,2.46243,9.47554,-2.17323,0.6611,1.53095,-0.9751,-0.11824,0.17978,11148,-0.156,-34.015,7.497,179.31,-14.543,-3.421,5,52.3988,,,,NaN,,,,0 / 0,226018,2018-08-09 08:46:43:902
1.07138,3.00121,11.34592,-0.00027,4.09933,8.90875,-1.58447,-2.79269,2.16376,-0.18526,0.5759,0.0623,11208,-1.291,-32.675,15.503,178.439,-24.709,0.002,5,69.2548,,,,NaN,,,,0 / 0,226519,2018-08-09 08:46:44:403
-7.23412,0.9727,15.06914,-3.1804,2.06872,9.043,2.12271,2.90462,-2.83982,-3.60344,2.06273,-2.04945,8284,11.887,-28.555,13.139,205.683,-23.84,13.343,5,65.1865,,,,NaN,,,,0 / 0,227019,2018-08-09 08:46:44:903
-2.43292,-0.21953,18.30484,-2.12378,3.18676,9.02798,1.39254,-2.09977,5.52078,-2.67107,-1.64072,0.87921,9824,2.57,-32.635,11.937,191.92,-27.883,21.296,5,65.56,,,,NaN,,,,0 / 0,227519,2018-08-09 08:46:45:403
-0.37628,0.54857,14.45299,-1.56682,0.99307,9.6296,-1.29919,2.83542,5.19355,-0.19543,-0.71138,0.23618,5600,2.109,-33.621,1.88,183.863,-5.812,9.242,5,52.6377,,,,NaN,,,,0 / 0,228018,2018-08-09 08:46:45:902
-3.11069,-0.81236,5.53255,-0.46038,2.63087,9.43594,-8.88156,-3.16413,8.86711,1.8709,-1.89096,2.19135,4452,1.849,-33.226,11.931,184.222,-15.562,2.793,5,66.307,,,,NaN,,,,0 / 0,228518,2018-08-09 08:46:46:402
1.28015,2.52025,11.48171,1.57963,2.32976,9.39401,-0.55764,1.44722,3.51751,-0.63382,-0.14532,0.16675,2536,-13.145,-32.195,11.15,156.329,-16.791,-8.931,5,61.4383,,,,NaN,,,,0 / 0,229019,2018-08-09 08:46:46:903
4.56071,0.96133,10.52278,2.63188,1.18867,9.3718,1.79634,-0.63306,5.33313,-2.13409,1.01022,-1.02707,550,-9.335,-32.976,4.025,163.512,-6.962,-15.686,5,47.7676,,,,NaN,,,,0 / 0,229518,2018-08-09 08:46:47:402
2.00159,1.51706,9.24442,2.62543,2.09356,9.21382,-0.58886,0.63453,1.08041,0.00188,0.1261,-0.06578,880,-3.522,-33.315,3.691,171.457,-8.831,-16.279,5,49.0497,,,,NaN,,,,0 / 0,230019,2018-08-09 08:46:47:903
2.13499,1.71028,13.18839,2.72132,1.43641,9.31137,1.46026,0.07683,4.53028,-0.81932,0.97438,-1.15739,1250,8.286,-33.949,0.954,192.24,-8.423,-16.291,5,55.321,,,,NaN,,,,0 / 0,230519,2018-08-09 08:46:48:403
5.47836,6.79861,14.62587,2.99229,4.29439,8.29306,0.19411,2.25601,2.56134,-1.16895,0.74266,0.68639,880,1.06,-30.923,16.406,172.453,-30.821,-20.139,5,61.2209,,,,NaN,,,,0 / 0,231019,2018-08-09 08:46:48:903
5.15114,2.67578,9.48311,2.29845,3.04698,9.03346,3.79876,0.06384,4.3833,-1.35159,-0.88651,-1.44022,2180,-2.512,-31.097,11.699,168.473,-19.18,-18.591,5,57.1095,,,,NaN,,,,0 / 0,231518,2018-08-09 08:46:49:402
5.61057,4.0726,9.26176,3.83778,4.14848,8.01448,1.2468,2.72686,1.86926,0.40442,-0.55623,0.77008,2400,-2.327,-31.129,13.173,167.648,-24.192,-24.344,5,55.4979,,,,NaN,,,,0 / 0,232018,2018-08-09 08:46:49:902
1.04805,5.07759,7.30324,0.13256,4.06116,8.92523,4.58375,-1.32,4.90366,-0.02501,2.36734,-0.57625,5600,-1.308,-32.306,11.966,175.672,-24.758,-7.569,5,55.7873,,,,NaN,,,,0 / 0,232518,2018-08-09 08:46:50:402
2.43707,3.5695,12.13973,1.31217,4.24639,8.74167,-0.61655,1.6224,1.04735,0.54329,-2.0278,-0.61189,8840,-5.019,-32.605,13.457,168.885,-25.659,-8.537,5,51.8298,,,,NaN,,,,0 / 0,233019,2018-08-09 08:46:50:903
3.47617,4.55714,8.66835,2.7497,3.05139,8.90497,1.25988,1.16817,5.3354,-2.47945,-1.02475,-1.42107,6644,-8.623,-34.94,12.254,160.99,-21.561,-18.225,5,46.3982,,,,NaN,,,,0 / 0,233520,2018-08-09 08:46:51:404
1.16829,4.11867,6.36285,1.63222,4.72986,8.43414,-3.25437,-0.24096,0.88874,0.80515,0.03183,0.14803,8236,1.343,-33.287,15.181,175.88,-26.097,-13.788,5,56.4738,,,,NaN,,,,0 / 0,234018,2018-08-09 08:46:51:902
2.08534,2.74159,3.94252,1.83325,3.53255,8.96274,2.92114,0.34597,3.25984,-0.98549,-0.79506,0.17409,8908,-6.674,-34.662,12.543,167.091,-24.336,-6.621,5,60.0098,,,,NaN,,,,0 / 0,234518,2018-08-09 08:46:52:402
1.22212,1.03491,7.07233,3.29525,1.92614,9.03337,2.58565,-0.90866,1.89533,0.66708,1.87193,-0.02811,16880,-6.377,-34.819,5.452,168.086,-11.327,-20.041,5,62.4637,,,,NaN,,,,0 / 0,235019,2018-08-09 08:46:52:903
-0.99484,2.48915,7.8123,0.33417,0.58904,9.78324,-1.06638,1.9716,-1.6991,-0.27525,-0.13962,0.01363,15664,-0.922,-34.152,-0.179,178.309,-5.108,-1.429,5,59.245,,,,NaN,,,,0 / 0,235518,2018-08-09 08:46:53:402
0.6317,0.24648,1.98399,0.38842,4.3448,8.78306,0.58026,-3.97581,0.37509,2.11728,1.2173,1.05412,15476,-12.857,-29.305,15.63,157.355,-26.298,-2.532,5,56.1595,,,,NaN,,,,0 / 0,236019,2018-08-09 08:46:53:903
-3.24289,0.4026,10.47672,0.13885,0.8674,9.76723,2.16938,0.32229,0.55872,-1.40759,0.23604,-1.9794,16456,-1.762,-32.349,-0.436,176.41,-5.074,-0.814,5,53.3752,,,,NaN,,,,0 / 0,236518,2018-08-09 08:46:54:402
3.08315,2.04289,6.70085,-0.00107,1.59959,9.67531,2.66911,-0.24848,-0.92705,0.6225,0.5258,0.17224,16628,-7.346,-31.207,4.341,167.244,-7.789,-1.051,5,53.3808,,,,NaN,,,,0 / 0,237018,2018-08-09 08:46:54:902
1.53978,2.63391,5.86874,5.26586,2.462,7.89808,-3.1086,0.22349,-1.70831,1.10385,-1.93066,0.5858,21474.836,-7.117,-31.335,10.539,160.472,-12.867,-27.082,5,67.5976,,,,NaN,,,,0 / 0,237520,2018-08-09 08:46:55:404
4.56909,2.17987,4.19019,6.66665,2.32469,6.80602,-0.9333,-0.5402,-2.39436,0.97374,0.25906,0.14291,17832,-11.076,-28.722,15.63,146.74,-13.43,-44.537,5,61.7641,,,,NaN,,,,0 / 0,238018,2018-08-09 08:46:55:902
1.34357,-0.04366,4.32837,6.3205,0.78394,7.45702,1.54068,-1.50511,-1.1494,-0.9525,-0.78754,-0.72958,20152,-10.652,-29.387,4.099,158.99,-4.585,-40.284,5,57.5922,,,,NaN,,,,0 / 0,238519,2018-08-09 08:46:56:403
3.54675,0.4379,5.44043,5.41265,1.6995,7.99908,-0.21789,-1.50303,-0.79365,1.8544,0.66589,0.18283,17000,-12.929,-29.424,6.769,152.941,-5.679,-35.533,5,58.324,,,,NaN,,,,0 / 0,239018,2018-08-09 08:46:56:902
3.9314,0.76572,7.66156,4.43762,-0.13178,8.74417,0.43925,1.03902,-0.96303,-1.21375,0.64635,-0.63286,15900,-11.424,-29.834,-2.992,164.316,0.77,-26.908,5,68.1296,,,,NaN,,,,0 / 0,239518,2018-08-09 08:46:57:402
1.91306,-0.30865,5.9836,3.00056,1.66806,9.18611,0.84604,-2.49485,4.19162,1.87865,0.01228,0.09996,21474.836,-9.177,-31.647,-2.744,166.833,-4.003,-20.59,5,62.3939,,,,NaN,,,,0 / 0,240019,2018-08-09 08:46:57:903
1.15034,1.66183,6.07034,2.10178,0.55019,9.56296,2.93733,0.36817,1.86814,-0.06839,0.60094,-0.51129,21474.836,0.847,-32.565,-5.476,183.589,-3.216,-12.396,5,60.6958,,,,NaN,,,,0 / 0,240518,2018-08-09 08:46:58:402
3.58803,1.04507,6.08829,1.96122,2.22663,9.34699,0.64305,-1.10344,1.47536,1.49582,0.5482,1.32393,21474.836,-6.377,-34.175,3.101,169.183,-9.557,-11.021,5,65.6379,,,,NaN,,,,0 / 0,241018,2018-08-09 08:46:58:902
0.08733,1.69054,7.79437,2.05759,2.94716,9.1242,-1.02235,-1.14392,-0.1324,-0.36139,-0.42775,-1.22722,21474.836,-4.976,-36.07,7.784,169.543,-17.298,-13.315,5,53.3149,,,,NaN,,,,0 / 0,241518,2018-08-09 08:46:59:402
0.77766,1.69832,6.73674,1.3746,3.60281,9.01668,0.26637,-0.55785,-0.96706,0.16435,0.02612,0.34654,19932,-7.869,-33.154,12.282,163.927,-20.03,-9.999,5,51.3521,,,,NaN,,,,0 / 0,242018,2018-08-09 08:46:59:902
-0.81477,2.98566,6.50642,2.13815,2.52437,9.23181,3.10816,-1.31602,-1.51867,-1.14349,0.21182,-0.97067,19884,-5.931,-32.497,8.444,166.419,-17.369,-14.638,5,54.9569,,,,NaN,,,,0 / 0,242519,2018-08-09 08:47:00:403
4.46201,2.44128,3.77562,4.99167,5.95676,5.98085,2.63879,-0.95175,-1.06174,-0.60533,0.72575,-0.20729,12600,3.992,-28.023,19.397,164.425,-37.403,-39.849,5,62.8428,,,,NaN,,,,0 / 0,243019,2018-08-09 08:47:00:903
3.11067,1.82274,9.04103,5.36623,5.0475,6.47277,-1.20106,-2.59226,1.12113,-0.48233,-0.34648,-0.21463,16736,4.251,-30.005,14.043,170.242,-31.667,-38.583,5,66.6514,,,,NaN,,,,0 / 0,243519,2018-08-09 08:47:01:403
-0.1693,1.53023,7.48032,3.01558,3.47542,8.66015,-0.73702,-0.37528,-0.891,-0.34041,-0.46562,-0.08064,19388,-2.56,-32.242,9.315,169.759,-19.907,-19.969,5,64.817,,,,NaN,,,,0 / 0,244019,2018-08-09 08:47:01:903
1.98065,1.51407,6.62488,3.04794,2.7425,8.90837,5.2706,0.52068,-1.6075,-0.40314,0.31058,-1.2254,16860,-3.307,-33.406,8.118,170.804,-16.24,-18.888,5,57.165,,,,NaN,,,,0 / 0,244518,2018-08-09 08:47:02:402
2.71466,2.61597,5.77243,2.49889,3.87339,8.6558,0.7911,0.34702,1.05096,0.72491,0.37412,0.15718,13548,1.031,-30.84,12.273,175.914,-23.264,-16.103,5,67.4257,,,,NaN,,,,0 / 0,245018,2018-08-09 08:47:02:902
1.08215,2.77689,4.26137,1.86437,4.06487,8.72762,0.82457,-0.63619,-2.2002,0.59929,0.10043,-0.12198,14812,2.071,-31.11,10.492,179.516,-21.991,-12.855,5,65.5434,,,,NaN,,,,0 / 0,245518,2018-08-09 08:47:03:402
-4.88855,2.73262,9.56087,-3.96373,4.90385,7.51076,1.14741,-0.18015,-3.76502,-0.99403,-1.23448,0.33147,6300,-17.084,-27.708,12.14,168.887,-33.981,35.934,5,61.4898,,,,NaN,,,,0 / 0,246018,2018-08-09 08:47:03:902
-0.25963,2.24687,3.84801,-0.58768,4.43782,8.7253,-0.54995,-1.27922,1.45907,0.63675,0.06441,-0.35268,11128,-10.606,-30.486,14.119,163.282,-26.906,3.853,5,66.5443,,,,NaN,,,,0 / 0,246518,2018-08-09 08:47:04:402
0.5276,2.55614,7.18599,-0.25963,3.97156,8.96268,1.0559,-0.36224,0.22741,0.06987,0.04506,0.6031,9772,-12.794,-31.888,10.562,160.325,-24.071,4.089,5,60.9507,,,,NaN,,,,0 / 0,247018,2018-08-09 08:47:04:902
0.32063,1.52245,6.62965,0.6164,2.60734,9.43357,0.6509,-0.44183,-2.17573,0.45573,0.51134,0.00774,11688,-11.136,-34.178,5.196,161.567,-15.419,-3.738,5,49.4312,,,,NaN,,,,0 / 0,247518,2018-08-09 08:47:05:402
0.85423,1.10728,9.3826,0.5359,3.47082,9.15623,-1.92708,-2.13061,1.00552,0.54044,-0.75435,1.18608,9272,-14.97,-32.681,6.425,155.828,-18.326,0.649,5,50.349,,,,NaN,,,,0 / 0,248019,2018-08-09 08:47:05:903
-0.4702,4.81557,5.50385,-0.27539,3.85299,9.01382,2.35053,0.02759,-1.49849,0.437,0.91328,-0.65057,8360,-12.589,-30.989,10.283,158.727,-23.135,1.75,5,42.1695,,,,NaN,,,,0 / 0,248518,2018-08-09 08:47:06:402
1.16769,2.39163,11.52058,-0.28667,5.1216,8.35808,1.21413,-1.53089,-3.52824,-0.85333,-0.60611,0.44205,6436,-20.085,-27.679,11.862,148.524,-34.334,4.98,5,63.1089,,,,NaN,,,,0 / 0,249019,2018-08-09 08:47:06:903
-1.36214,2.8391,4.12677,-1.11137,5.14205,8.27614,-1.40431,-2.43803,-3.02851,0.65305,-0.61284,-0.05844,5700,-16.432,-30.434,13.858,157.591,-31.624,7.648,5,58.9861,,,,NaN,,,,0 / 0,249518,2018-08-09 08:47:07:402
0.70647,4.23172,3.40833,-1.3746,5.24891,8.16883,1.58701,-2.17055,-1.31742,0.48138,0.23117,1.22638,5652,-27.132,-26.717,11.33,140.277,-31.354,7.357,5,58.8499,,,,NaN,,,,0 / 0,250019,2018-08-09 08:47:07:903
-1.71208,3.42415,4.99776,-0.9317,3.90441,8.94751,-0.08843,-1.14125,-2.7529,-0.19035,-0.25648,-0.52208,6376,-10.033,-33.662,8.742,165.594,-23.822,5.883,5,67.3855,,,,NaN,,,,0 / 0,250519,2018-08-09 08:47:08:403
-1.15515,1.83949,7.9176,-1.64989,3.37732,9.0577,-1.2753,-2.2242,-1.22433,0.16435,-0.15469,0.81976,9424,-13.176,-32.111,7.016,160.849,-20.145,10.323,5,56.9292,,,,NaN,,,,0 / 0,251019,2018-08-09 08:47:08:903
-1.72285,3.79562,7.40254,-0.49054,3.85184,9.00517,-1.5282,-0.59644,-4.03624,0.53046,-1.22308,0.08896,10560,-9.097,-32.52,10.825,167.542,-20.757,6.246,5,62.4438,,,,NaN,,,,0 / 0,251519,2018-08-09 08:47:09:403
-0.96252,3.94278,6.49266,-1.04453,3.15802,9.22531,-0.33765,-0.5297,-4.45328,0.05806,0.63637,0.70554,11992,-13.142,-31.241,8.214,160.684,-18.061,9.906,5,66.417,,,,NaN,,,,0 / 0,252019,2018-08-09 08:47:09:903
-2.69673,3.13222,10.30086,-0.9972,1.80986,9.58647,-1.04005,-0.37737,-1.88119,0.15132,-0.78937,0.19301,13068,-3.352,-33.917,3.973,176.025,-10.575,8.465,5,56.2451,,,,NaN,,,,0 / 0,252518,2018-08-09 08:47:10:402
0.37805,2.62973,11.34232,-1.57187,2.51395,9.34771,-0.77616,-1.42153,-1.0274,0.3075,-0.6279,0.06474,12000,-17.581,-30.818,3.816,151.704,-14.854,9.545,5,63.5838,,,,NaN,,,,0 / 0,253019,2018-08-09 08:47:10:903
-4.55954,5.04349,12.2869,-1.06232,3.41487,9.1313,-2.44546,1.83433,1.4567,-0.79448,0.66772,-0.36285,13624,-2.888,-31.679,11.099,176.38,-22.881,4.434,5,58.521,,,,NaN,,,,0 / 0,253518,2018-08-09 08:47:11:402
-0.12204,1.29393,12.53873,-2.17326,3.2207,9.00413,0.38387,-0.03785,0.11197,-0.68411,-0.93007,-0.7984,11616,-6.679,-33.682,8.427,171.969,-22.229,13.476,5,56.1852,,,,NaN,,,,0 / 0,254018,2018-08-09 08:47:11:902
-3.78786,3.1394,11.69527,0.2328,2.37176,9.51267,-3.20107,0.31283,-0.53808,-0.51532,0.18149,0.03461,15888,3.014,-33.682,4.532,184.806,-13.996,-1.402,5,44.5245,,,,NaN,,,,0 / 0,254519,2018-08-09 08:47:12:403
-2.51965,1.92444,11.58519,-0.45291,2.14052,9.55947,-0.40468,-0.51785,0.94905,-0.73972,-0.0871,-0.43047,13708,3.522,-33.942,2.457,186.946,-12.608,2.713,5,54.0213,,,,NaN,,,,0 / 0,255018,2018-08-09 08:47:12:902
-0.02155,3.14359,15.38739,1.51877,2.23668,9.42661,-1.38229,2.04507,5.68949,-0.41779,-0.06326,-0.10426,15372,9.073,-30.972,1.004,195.907,-14.9,-9.369,5,67.8166,,,,NaN,,,,0 / 0,255518,2018-08-09 08:47:13:402
2.90848,3.29195,11.72038,1.07893,3.29684,9.17263,0.89836,0.19083,-0.4143,-0.621,-0.15001,-0.14641,12844,2.379,-32.257,8.105,182.129,-23.41,-5.582,5,62.9247,,,,NaN,,,,0 / 0,256019,2018-08-09 08:47:13:903
-0.87399,2.06801,16.9511,2.29396,2.44401,9.21602,-1.22716,1.84589,1.19609,-0.91177,-0.20416,-0.37671,15044,6.564,-31.836,0.412,192.202,-14.431,-13.977,5,55.0737,,,,NaN,,,,0 / 0,256518,2018-08-09 08:47:14:402
1.43091,1.38545,11.93155,1.26108,1.95413,9.52688,1.1477,-0.59539,5.34286,-1.45604,-0.13535,-0.13318,13160,1.404,-33.615,1.884,181.257,-17.099,-7.594,5,60.8662,,,,NaN,,,,0 / 0,257019,2018-08-09 08:47:14:903
1.46858,1.73601,10.12618,4.16363,1.69296,8.71599,-2.76598,-0.20063,5.57363,2.0006,-0.96223,0.92055,13796,-0.574,-34.129,-1.361,179.188,-9.941,-25.534,5,51.2752,,,,NaN,,,,0 / 0,257518,2018-08-09 08:47:15:402
7.21016,0.31825,8.67493,4.68773,1.98767,8.38122,1.73164,-2.40346,5.71601,-1.47478,-0.25386,-0.54387,10524,-5.656,-33.907,4.282,167.784,-13.573,-28.924,5,51.7766,,,,NaN,,,,0 / 0,258018,2018-08-09 08:47:15:902
3.11006,0.99303,8.53075,3.37693,1.12624,9.13774,-0.25557,0.29554,5.76755,1.13989,0.58832,0.68597,14528,-2.483,-33.263,0.732,176.125,-6.595,-20.282,5,52.6409,,,,NaN,,,,0 / 0,258519,2018-08-09 08:47:16:403
4.99081,1.89214,10.05977,1.84074,2.17168,9.38434,-0.51455,-0.34782,-0.80357,-0.40924,-1.75066,-0.07576,14740,-7.37,-32.747,6.676,166.898,-14.033,-6.95,5,51.9025,,,,NaN,,,,0 / 0,259018,2018-08-09 08:47:16:902
0.38284,1.19225,8.45717,1.67658,2.69875,9.27773,0.66277,0.2454,-1.51472,0.27858,-0.38417,0.49049,13220,-10.158,-31.866,8.481,160.854,-15.974,-10.243,5,51.61,,,,NaN,,,,0 / 0,259519,2018-08-09 08:47:17:403
-5.60162,1.89992,7.43065,-7.31799,4.30696,4.90586,5.1399,0.58794,1.44037,0.02834,0.13342,-0.40114,5792,-20.94,-29.173,-2.336,157.802,-28.162,55.486,5,50.2426,,,,NaN,,,,0 / 0,260018,2018-08-09 08:47:17:902
-6.87399,2.36472,9.12418,-5.54976,5.23068,6.16527,-1.06453,0.71436,-2.51552,-1.33429,-0.34669,-0.02383,6652,-26.805,-25.024,1.317,149.645,-33.407,44.507,5,51.18,,,,NaN,,,,0 / 0,260519,2018-08-09 08:47:18:403
-2.91566,2.77928,5.61929,-4.09612,5.56649,6.95747,4.37168,-0.15962,0.05413,0.44759,-0.25447,-1.27629,7948,-26.26,-26.038,6.908,149.74,-34.585,30.487,5,53.1359,,,,NaN,,,,0 / 0,261018,2018-08-09 08:47:18:902
0.32422,3.80759,6.71042,-4.50041,5.36035,6.86902,3.79359,-1.70873,1.21098,0.03424,0.15358,0.26387,7144,-27.184,-25.928,1.894,144.549,-33.792,32.267,5,56.1734,,,,NaN,,,,0 / 0,261518,2018-08-09 08:47:19:402
-6.12624,3.21118,3.42088,-4.95015,5.76499,6.1993,2.05595,-0.7078,3.28881,1.20892,-0.34244,-1.16899,6696,-19.611,-29.776,12.117,165.434,-35.631,34.848,5,67.8256,,,,NaN,,,,0 / 0,262018,2018-08-09 08:47:19:902
-1.74916,3.91527,4.0484,-4.80962,4.98259,6.94347,-1.44078,-1.26592,1.2498,0.39526,0.07622,1.01991,7336,-11.372,-32.555,13.495,177.464,-30.536,34.71,5,62.3744,,,,NaN,,,,0 / 0,262519,2018-08-09 08:47:20:403
-5.82893,2.51009,5.60373,-6.50696,2.11758,7.02465,0.53706,1.66065,-1.18334,-0.13557,-0.63422,-0.84198,4304,-1.425,-34.869,6.012,185.415,-12.47,42.809,5,60.982,,,,NaN,,,,0 / 0,263018,2018-08-09 08:47:20:902
-3.17589,0.85306,5.70184,-4.37096,2.16006,8.50877,1.6794,-1.52792,0.10299,-0.08386,0.24257,0.70389,4704,-13.445,-32.829,-1.559,159.425,-12.038,27.596,5,63.38,,,,NaN,,,,0 / 0,263518,2018-08-09 08:47:21:402
-3.0054,1.49852,5.51999,-4.04657,2.33898,8.62119,1.78495,-1.99076,-3.78267,1.72673,-0.70915,-0.24821,8132,-11.461,-33.27,4.622,167.115,-13.799,25.144,5,63.8831,,,,NaN,,,,0 / 0,264018,2018-08-09 08:47:21:902
-3.21059,1.58885,5.00912,-3.09049,3.00812,8.80741,0.61663,-0.68158,-0.98091,0.46388,0.00169,0.41028,8496,-8.553,-30.632,5.835,168.563,-17.863,19.336,5,64.1822,,,,NaN,,,,0 / 0,264518,2018-08-09 08:47:22:402
-2.48257,3.41217,5.8167,-1.39889,2.83109,9.28431,-2.67912,-1.47383,1.07424,1.54266,-0.95532,0.24901,10592,-4.355,-32.144,5.194,174.598,-13.515,10.046,5,57.5363,,,,NaN,,,,0 / 0,265019,2018-08-09 08:47:22:903
-0.15674,3.07658,4.05737,-2.03056,5.08273,8.13714,0.72276,-2.75905,-4.47537,0.91083,-0.26505,1.16998,9252,-13.423,-30.487,15.317,166.57,-26.431,16.102,5,51.224,,,,NaN,,,,0 / 0,265519,2018-08-09 08:47:23:403
-2.68536,3.92424,7.92357,-1.68692,2.82831,9.23717,-1.07925,0.43601,-3.82828,-0.06979,-0.76045,-0.32091,10736,0.6,-32.852,8.696,184.896,-16.903,12.458,5,64.1921,,,,NaN,,,,0 / 0,266019,2018-08-09 08:47:23:903
-1.59782,2.47,6.2498,-2.09526,4.01431,8.6986,0.17929,-2.16669,-3.20844,0.42784,0.39711,1.03111,9168,-12.576,-31.024,12.053,164.013,-24.164,13.543,5,62.5335,,,,NaN,,,,0 / 0,266518,2018-08-09 08:47:24:402
-4.78806,4.60739,10.90144,-1.78546,2.62386,9.2789,-0.76142,0.29468,-2.96291,-0.22923,-0.00076,-0.29221,8792,-0.272,-32.242,8.417,182.764,-15.731,11.463,5,64.0131,,,,NaN,,,,0 / 0,267018,2018-08-09 08:47:24:902
-0.64667,3.51686,8.81969,-1.39892,3.74615,8.95431,-0.07499,-1.8664,-1.31028,0.02731,0.30141,0.66052,8960,-10.133,-31.616,10.847,166.588,-22.458,8.879,5,61.0652,,,,NaN,,,,0 / 0,267519,2018-08-09 08:47:25:403
-4.16472,3.60301,8.89865,-1.40607,3.52211,9.04368,-0.78675,-0.57142,-2.94499,0.11018,-0.37968,-0.45204,9116,-3.433,-31.633,9.036,177.305,-21.178,8.947,5,62.7322,,,,NaN,,,,0 / 0,268019,2018-08-09 08:47:25:903
0.28235,3.2704,8.35788,-0.98677,3.29127,9.185,-0.12124,-1.52654,-2.60814,0.34761,-0.3353,0.44469,8292,-11.755,-30.869,4.077,159.62,-19.61,6.132,5,51.884,,,,NaN,,,,0 / 0,268519,2018-08-09 08:47:26:403
-3.59703,3.19025,11.79158,-1.25133,2.84215,9.30198,-0.74972,0.21122,-3.31418,-0.72281,-0.08527,-0.47017,8996,-3.697,-33.629,4.572,174.481,-16.847,7.662,5,48.8715,,,,NaN,,,,0 / 0,269019,2018-08-09 08:47:26:903
-1.22813,2.63989,9.43883,-1.17714,3.5179,9.07795,-0.41206,-1.00108,-1.27396,-0.18871,-0.13269,-0.12666,8876,-11.089,-33.022,6.987,163.391,-20.946,6.928,5,52.0781,,,,NaN,,,,0 / 0,269519,2018-08-09 08:47:27:403
-4.46683,3.96074,10.29607,-1.56495,3.06396,9.18333,-1.13185,0.04411,-2.1956,-0.48947,-0.20314,-0.85175,7692,1.262,-34.026,7.489,183.264,-21.408,7.851,5,65.9988,,,,NaN,,,,0 / 0,270019,2018-08-09 08:47:27:903
-2.138,2.25285,9.0835,-2.12692,3.40751,8.94626,-0.17914,-1.15468,-2.19626,0.02875,-0.29254,-0.07291,7480,-4.054,-34.593,8.101,176.819,-19.424,13.672,5,52.5964,,,,NaN,,,,0 / 0,270519,2018-08-09 08:47:28:403
-6.65625,3.14658,10.71002,-3.19282,3.2068,8.70016,-2.11871,-0.56031,-2.00287,-0.3681,0.56287,-0.30687,8676,4.095,-34.717,11.005,191.836,-19.087,20.152,5,59.8984,,,,NaN,,,,0 / 0,271019,2018-08-09 08:47:28:903
-5.55914,0.49054,10.59216,-3.98321,1.05433,8.89903,-1.48914,-1.49516,-0.15371,-1.37134,1.54736,-0.66809,8772,-4.976,-34.46,1.906,173.123,-10.714,18.5,5,52.1044,,,,NaN,,,,0 / 0,271519,2018-08-09 08:47:29:403
-8.44308,0.55455,13.2159,-5.37616,-1.409,8.07973,-0.81533,2.6346,2.849,-0.93071,-0.73419,-0.72102,6576,4.404,-31.352,-7.837,177.365,5.669,35.957,5,54.5884,,,,NaN,,,,0 / 0,272019,2018-08-09 08:47:29:903
-6.88237,-1.87836,16.39179,-4.21439,-0.21879,8.8522,0.15672,0.30468,-0.73688,-0.72586,-0.28073,-0.30789,7664,-0.377,-32.265,-5.168,176.169,1.278,25.458,5,51.7369,,,,NaN,,,,0 / 0,272518,2018-08-09 08:47:30:402
-10.0732,3.33083,9.08829,-5.80739,1.07718,7.82843,-2.16431,1.68593,-1.45812,-0.58313,0.42398,-0.46426,6228,6.775,-31.915,4.248,194.172,-6.306,36.569,5,50.6889,,,,NaN,,,,0 / 0,273019,2018-08-09 08:47:30:903
-6.17529,1.77249,12.27432,-4.55041,2.33511,8.36728,-0.29767,-0.48002,2.12284,-1.31677,0.75142,-1.55608,8004,-9.309,-32.404,5.217,169.934,-19.239,26.262,5,50.3393,,,,NaN,,,,0 / 0,273518,2018-08-09 08:47:31:402
-6.06462,4.2718,10.83864,-4.62174,1.60089,8.49983,-1.6355,2.09577,0.29512,-0.38622,-0.21558,-0.87598,8980,3.929,-32.8,4.839,190.152,-9.395,28.535,5,53.7185,,,,NaN,,,,0 / 0,274019,2018-08-09 08:47:31:903
-10.88496,1.44229,2.45299,-6.72751,3.87379,5.99206,5.99421,2.52638,7.98805,1.29587,1.48036,-0.94745,6728,-9.978,-32.208,10.541,182.54,-23.267,48.309,5,56.4848,,,,NaN,,,,0 / 0,274519,2018-08-09 08:47:32:403
-9.80041,4.11328,-1.21761,-6.57105,5.41394,4.8663,0.1013,-0.83169,-4.7246,-1.07793,1.17453,-0.57339,8432,-9.573,-27.684,22.728,197.319,-35.692,49.961,5,67.3061,,,,NaN,,,,0 / 0,275018,2018-08-09 08:47:32:902
-7.739,5.83492,7.1872,-5.87529,4.66635,6.31479,0.82304,0.28186,1.67156,-0.80589,-0.12497,-0.84402,5248,-19.839,-29.327,4.744,161.576,-28.414,42.935,5,44.5102,,,,NaN,,,,0 / 0,275518,2018-08-09 08:47:33:402
-9.94937,5.13382,10.57065,-5.978,3.54435,6.91892,1.11567,1.9782,3.32259,-1.45728,-0.54768,-0.66687,5352,-13.008,-31.772,4.955,169.196,-25.228,41.026,5,53.2069,,,,NaN,,,,0 / 0,276019,2018-08-09 08:47:33:903
-6.03412,3.62155,10.92777,-5.8136,4.73835,6.31826,0.71125,0.77683,0.73242,-1.0649,0.414,-0.44023,5464,-20.073,-30.762,2.06,158.768,-28.893,42.618,5,49.9974,,,,NaN,,,,0 / 0,276518,2018-08-09 08:47:34:402
-11.40121,6.85725,9.17503,-5.63926,5.14455,6.15652,-1.67527,3.03947,-1.36449,-1.5041,0.30812,-0.11993,6292,-12.013,-30.797,15.303,182.494,-34.137,43.394,5,52.7121,,,,NaN,,,,0 / 0,277019,2018-08-09 08:47:34:903
-7.81317,2.27917,14.44701,-6.55949,3.9941,6.09842,-1.12479,-1.27225,6.51465,-0.78247,-0.70935,-0.4498,5584,-19.931,-30.673,-2.368,155.904,-24.034,47.086,5,53.104,,,,NaN,,,,0 / 0,277519,2018-08-09 08:47:35:403
-14.73083,2.01776,9.75409,-6.70974,4.0572,5.88973,-4.84724,1.14143,-1.63322,-1.84781,0.58974,-1.00223,6296,-7.861,-33.179,13.463,186.48,-27.864,47.165,5,52.7114,,,,NaN,,,,0 / 0,278019,2018-08-09 08:47:35:903
-7.5368,1.02295,9.87972,-6.16243,3.1832,6.93268,-5.13482,-1.2833,7.12372,-0.43103,-0.03925,-1.87698,5276,-10.059,-33.269,4.024,172.45,-19.052,43.17,5,52.5605,,,,NaN,,,,0 / 0,278519,2018-08-09 08:47:36:403
-12.11069,2.05725,4.64362,-6.80064,3.38674,6.20095,-1.8551,0.9142,2.30049,-0.49658,-0.04291,0.11157,4728,-8.083,-33.362,7.851,180.856,-20.203,47.641,5,65.4905,,,,NaN,,,,0 / 0,279019,2018-08-09 08:47:36:903
-7.34479,3.81238,8.89267,-5.62944,3.78946,7.07953,-2.00635,0.37835,3.96815,0.14156,0.12242,-0.34819,5376,-19.511,-30.212,4.134,158.281,-24.46,37.576,5,60.5504,,,,NaN,,,,0 / 0,279519,2018-08-09 08:47:37:403
-4.0708,4.79404,6.21689,-5.40774,4.30045,6.95937,-1.88521,1.95159,3.8855,-0.75946,0.95747,-0.08411,6296,-16.148,-30.901,7.35,165.199,-23.667,35.027,5,48.8818,,,,NaN,,,,0 / 0,280019,2018-08-09 08:47:37:903
-7.24966,2.18886,14.22328,-4.40685,2.17163,8.48729,-3.26381,-0.42896,6.34051,-1.28297,-0.06836,-1.44287,5636,-9.348,-33.263,3.429,168.832,-14.295,27.118,5,45.2068,,,,NaN,,,,0 / 0,280518,2018-08-09 08:47:38:402
-7.51527,2.29652,11.63484,-4.3795,1.37319,8.6663,-2.45762,2.72844,3.8637,-0.05371,0.6109,0.10486,6036,-1.022,-32.748,4.277,181.571,-8.049,26.81,5,48.0314,,,,NaN,,,,0 / 0,281019,2018-08-09 08:47:38:903
-5.59444,2.89233,19.60594,-4.23288,2.0466,8.60608,-1.23591,0.51491,9.29621,-0.16673,0.23117,-0.54672,6084,-4.037,-33.029,4.584,177.407,-17.298,25.015,5,63.7286,,,,NaN,,,,0 / 0,281519,2018-08-09 08:47:39:403
-6.06761,3.25604,11.15808,-3.90175,2.42577,8.66385,-1.7717,1.93261,5.1844,-0.69167,0.52946,0.29442,5188,-2.061,-32.8,7.236,181.783,-14.321,24.244,5,66.0687,,,,NaN,,,,0 / 0,282019,2018-08-09 08:47:39:903
0.17467,3.31766,6.32098,-3.289,3.50464,8.54812,0.32836,-1.34411,4.3572,-0.01422,0.6382,-0.61024,4728,-5.035,-31.912,8.745,177.697,-18.334,21.515,5,50.5757,,,,NaN,,,,0 / 0,282519,2018-08-09 08:47:40:403
-1.76114,3.92305,4.69507,-3.33297,2.79008,8.79074,-1.682,-0.01843,3.52978,0.62923,0.15216,1.30316,3960,-5.035,-32.234,9.92,178.088,-16.529,20.764,5,64.3394,,,,NaN,,,,0 / 0,283019,2018-08-09 08:47:40:903
0.23688,2.44368,5.4841,-2.62502,2.66373,9.06555,1.87188,-0.19744,-0.391,0.22789,-1.23489,-0.26532,3244,-7.716,-32.422,5.502,170.442,-13.951,19.304,5,50.0845,,,,NaN,,,,0 / 0,283520,2018-08-09 08:47:41:404
2.54955,3.10948,9.87791,-2.38881,3.06968,9.00228,-2.76233,-0.04838,-0.01675,0.35291,0.38795,1.00649,1836,-8.078,-32.408,4.915,169.905,-16.719,19.78,5,56.1458,,,,NaN,,,,0 / 0,284020,2018-08-09 08:47:41:904
5.68713,2.59921,3.91022,-1.23199,2.36502,9.43712,4.38696,0.78787,-3.00748,2.25208,-6.38914,0.2818,3196,-0.478,-33.118,7.515,183.764,-14.454,16.176,5,62.6065,,,,NaN,,,,0 / 0,284518,2018-08-09 08:47:42:402
-7.81856,-3.62273,5.71561,2.2877,8.59845,4.12352,-10.8516,-2.67662,-7.12981,-7.28307,9.36763,3.84882,1250,33.459,-14.659,10.907,170.812,-78.962,-81.342,5,67.1313,,,,NaN,,,,0 / 0,285019,2018-08-09 08:47:42:903
0.02272,6.26382,-2.86447,3.77486,7.05427,5.67081,-1.49575,-2.05991,-0.05565,3.98387,-3.26378,-0.41498,1348,24.94,-22.997,13.461,201.972,-46,-33.65,5,67.9092,,,,NaN,,,,0 / 0,285519,2018-08-09 08:47:43:403
4.05522,2.79184,5.16705,3.10263,3.67867,8.54468,2.66836,-0.07235,-3.47999,1.24028,-0.23003,0.20279,3208,8.188,-32.262,6.006,189.463,-17.715,-19.736,5,52.7067,,,,NaN,,,,0 / 0,286019,2018-08-09 08:47:43:903
2.30608,2.93123,10.17761,2.01985,1.72291,9.44045,0.42698,1.22668,-0.94091,-0.05005,1.36411,-0.48279,3640,5.844,-32.748,1.579,188.778,-7.23,-17.402,5,59.3852,,,,NaN,,,,0 / 0,286519,2018-08-09 08:47:44:403
-2.90489,3.1053,8.93874,-1.34711,3.42379,9.09029,0.43723,-0.77031,0.80888,-0.42879,0.58037,1.0242,5552,-15.75,-30.701,12.077,157.529,-20.434,8.429,5,70.1605,,,,NaN,,,,0 / 0,287018,2018-08-09 08:47:44:902
-5.73442,3.22314,3.60153,-1.34063,2.54836,9.37438,-2.36571,-0.32749,-1.31116,0.88821,-0.29927,-0.61697,4428,-8.182,-31.316,9.955,168.785,-15.062,8.139,5,66.3686,,,,NaN,,,,0 / 0,287518,2018-08-09 08:47:45:402
-9.12863,4.89453,9.39337,-0.99411,3.05405,9.26579,0.69235,0.72312,-3.30192,0.74284,0.00067,1.1712,3328,-20.68,-28.777,7.416,146.717,-17.869,6.815,5,62.8388,,,,NaN,,,,0 / 0,288018,2018-08-09 08:47:45:902
-5.30131,2.79243,10.92059,-0.42142,2.9828,9.33251,-5.12685,0.01893,-2.98478,-0.17508,0.23666,-0.89227,2240,-16.676,-30.904,7.649,152.223,-16.889,0.811,5,60.5798,,,,NaN,,,,0 / 0,288518,2018-08-09 08:47:46:402
-0.76453,3.48935,7.60474,-0.04575,3.81067,9.03588,0.66815,-0.59955,-5.19509,0.13931,0.02795,0.61858,1812,-24.106,-25.851,11.623,140.136,-22.866,0.29,5,39.1983,,,,NaN,,,,0 / 0,289019,2018-08-09 08:47:46:903
-5.73801,3.25485,7.02747,-0.02941,3.72665,9.07092,-2.49494,-0.29509,-4.34962,-0.30009,0.40994,-0.52718,2096,-15.753,-30.688,11.487,153.273,-22.999,-2.2,5,44.9749,,,,NaN,,,,0 / 0,289519,2018-08-09 08:47:47:403
-1.32146,3.96013,6.28809,0.34597,4.7957,8.54704,-1.29574,-1.51605,-4.42422,0.83142,0.11409,0.83746,3524,-27.04,-24.081,13.739,134.768,-27.59,-2.142,5,50.2505,,,,NaN,,,,0 / 0,290019,2018-08-09 08:47:47:903
-3.4068,5.87978,5.50682,0.36609,4.98619,8.43648,-4.32893,-0.96156,-2.16752,0.34537,-0.45157,-0.78984,5796,-18.66,-27.737,14.215,147.994,-29.028,-1.605,5,60.2318,,,,NaN,,,,0 / 0,290519,2018-08-09 08:47:48:403
