ACCELEROMETER_X,ACCELEROMETER_Y,ACCELEROMETER_Z,GRAVITY X (m/s²),GRAVITY Y (m/s²),GRAVITY Z (m/s²),LINEAR_X,LINEAR_Y,LINEAR_Z,GYROSCOPE X (rad/s),GYROSCOPE Y (rad/s),GYROSCOPE Z (rad/s),LIGHT (lux),MAGNETIC FIELD X (μT),MAGNETIC FIELD Y (μT),MAGNETIC FIELD Z (μT),ORIENTATION Z (azimuth °),ORIENTATION X (pitch °),ORIENTATION Y (roll °),PROXIMITY (m),SOUNDLEVEL,LOCATION Latitude : ,LOCATION Longitude : ,LOCATION Altitude ( m),LOCATION Altitude-google ( m),LOCATION Speed ( m/s),LOCATION Accuracy ( m),LOCATION ORIENTATION (°),Satellites in range,Time  ,Date
-0.7861,-0.1029,9.8313,-0.7601,-0.1088,9.7765,0.0069,0.0204,-0.0006,-0.0022,0.0019,0.0007,0,-41.93,-26.19,-40.04,120.43,0.67,4.45,0,24.942,,,,NaN,,,,0 / 0,6,2018-08-11 08:38:26:944
-0.7549,-0.0957,9.8671,-0.7532,-0.1074,9.7771,0.0022,0.0149,0.0391,-0.0059,0.0056,0.0007,30,-41.76,-26.18,-40.33,120.43,0.63,4.4,5,29.847,,,,NaN,,,,0 / 0,507,2018-08-11 08:38:27:445
-0.7573,0.0527,9.9892,-0.7718,-0.108,9.7756,-0.0064,-0.0068,0.0307,0.0393,0.0105,0.0044,30,-42.12,-26.49,-39.74,120.45,0.71,4.49,5,35.504,,,,NaN,,,,0 / 0,1006,2018-08-11 08:38:27:944
-0.7944,-0.0837,9.8241,-0.7564,-0.0917,9.777,0.0182,0.0235,0.0588,0.01,0.008,0.0044,30,-41.24,-26.48,-40.64,120.89,0.54,4.42,5,28.986,,,,NaN,,,,0 / 0,1506,2018-08-11 08:38:28:444
-0.7705,-0.0969,9.8121,-0.7742,-0.0719,9.7758,0.013,-0.0112,0.0069,0.01,-0.0042,-0.0017,30,-41.93,-26.17,-40.63,120.22,0.43,4.55,5,27.866,,,,NaN,,,,0 / 0,2006,2018-08-11 08:38:28:944
-0.7681,-0.0802,9.8133,-0.7665,-0.0657,9.7764,-0.0182,-0.0073,-0.0035,0.0027,-0.0005,0.0007,30,-41.59,-26.8,-39.46,121.24,0.38,4.47,5,24.948,,,,NaN,,,,0 / 0,2507,2018-08-11 08:38:29:445
-0.7789,-0.0861,9.8444,-0.7751,-0.0742,9.7757,-0.0005,0.0089,-0.0018,0.0015,-0.0005,0.0007,30,-41.24,-26.48,-40.64,120.79,0.43,4.53,5,20.994,,,,NaN,,,,0 / 0,3008,2018-08-11 08:38:29:946
-0.7777,-0.0718,9.8456,-0.7726,-0.0699,9.7759,-0.0069,-0.0064,0.0175,0.0015,-0.0018,-0.0005,30,-41.22,-26.19,-40.04,120.82,0.41,4.52,5,32.864,,,,NaN,,,,0 / 0,3506,2018-08-11 08:38:30:444
-0.7753,-0.0897,9.8145,-0.7797,-0.0989,9.7751,-0.001,0.0302,-0.0184,0.0015,-0.0018,-0.0017,30,-41.77,-26.78,-40.34,121.28,0.58,4.56,5,28.542,,,,NaN,,,,0 / 0,4007,2018-08-11 08:38:30:945
-0.7765,-0.0586,9.8444,-0.7586,-0.0854,9.7769,-0.0158,-0.029,-0.0122,0.0088,-0.003,0.0007,30,-41.37,-25.29,-40.32,119.93,0.49,4.43,5,24.325,,,,NaN,,,,0 / 0,4506,2018-08-11 08:38:31:444
-0.8231,-0.1424,9.7008,-0.779,-0.1029,9.7751,-0.1777,-0.309,0.0848,-0.0046,-0.0005,0.0007,30,-42.66,-26.78,-40.04,120.74,0.6,4.56,5,22.208,,,,NaN,,,,0 / 0,5006,2018-08-11 08:38:31:944
-0.7849,-0.1053,9.8217,-0.7849,-0.0914,9.7748,0.0293,-0.0289,-0.0602,0.0051,0.0007,0.002,30,-40.89,-26.78,-40.64,121.76,0.52,4.61,5,22.161,,,,NaN,,,,0 / 0,5507,2018-08-11 08:38:32:445
-0.7813,-0.0849,9.8181,-0.7738,-0.087,9.7757,0.0059,0.0025,-0.0123,0.0015,-0.0005,-0.0005,30,-41.42,-26.78,-40.35,121.82,0.51,4.53,5,24.366,,,,NaN,,,,0 / 0,6006,2018-08-11 08:38:32:944
-0.7765,-0.0826,9.8301,-0.7739,-0.0813,9.7757,0.0004,0.0014,0.0058,0.0015,-0.0018,0.0007,30,-41.24,-26.48,-40.64,120.82,0.48,4.53,5,22.705,,,,NaN,,,,0 / 0,6507,2018-08-11 08:38:33:445
-0.7896,-0.073,9.8313,-0.7753,-0.0783,9.7756,-0.0118,0.0017,0.0081,-0.001,0.0007,0.002,30,-41.76,-26.17,-40.92,120.25,0.46,4.53,5,22.149,,,,NaN,,,,0 / 0,7007,2018-08-11 08:38:33:945
-0.7729,-0.0813,9.8181,-0.7746,-0.0782,9.7757,-0.0052,-0.0124,-0.0013,0.0015,-0.0005,0.0007,30,-41.58,-26.18,-40.63,120.24,0.46,4.53,5,22.549,,,,NaN,,,,0 / 0,7506,2018-08-11 08:38:34:444
-0.7932,-0.1005,9.8348,-0.7773,-0.0817,9.7755,0.0006,-0.0023,-0.0027,0.0027,-0.0005,0.0007,30,-41.79,-27.69,-39.77,122.15,0.48,4.55,5,24.799,,,,NaN,,,,0 / 0,8006,2018-08-11 08:38:34:944
-0.7789,-0.0754,9.8301,-0.7773,-0.0816,9.7755,0.0009,0.0029,0.0049,0.0015,-0.0005,0.0007,30,-41.24,-26.78,-40.64,121.76,0.48,4.55,5,23.64,,,,NaN,,,,0 / 0,8507,2018-08-11 08:38:35:445
-0.7885,-0.0813,9.836,-0.7747,-0.0819,9.7757,0.004,0.0055,0.0095,-0.001,-0.0005,-0.0005,30,-40.54,-26.46,-41.82,120.78,0.48,4.54,5,21.255,,,,NaN,,,,0 / 0,9006,2018-08-11 08:38:35:944
-0.7872,-0.0909,9.8336,-0.7751,-0.0818,9.7756,-0.0052,-0.0021,-0.0051,0.0015,-0.0005,0.0007,30,-41.43,-27.07,-40.94,121.76,0.48,4.53,5,22.524,,,,NaN,,,,0 / 0,9506,2018-08-11 08:38:36:444
-0.7908,-0.0766,9.8253,-0.7756,-0.0775,9.7756,-0.0042,-0.0004,-0.001,0.0027,-0.0018,0.0007,30,-40.87,-26.18,-40.63,120.8,0.46,4.54,5,26.557,,,,NaN,,,,0 / 0,10007,2018-08-11 08:38:36:945
-0.7777,-0.0861,9.8181,-0.7764,-0.078,9.7756,-0.0092,-0.0066,-0.0024,0.0015,-0.0005,0.0007,30,-41.75,-25.87,-40.92,120.24,0.46,4.54,5,25.209,,,,NaN,,,,0 / 0,10506,2018-08-11 08:38:37:444
-0.7777,-0.0766,9.8229,-0.7753,-0.0806,9.7756,0.0022,0.0039,-0.0065,0.0015,-0.0005,-0.0005,30,-41.59,-26.8,-39.46,121.27,0.48,4.54,5,25.126,,,,NaN,,,,0 / 0,11006,2018-08-11 08:38:37:944
-0.7645,-0.0897,9.8372,-0.7741,-0.0821,9.7757,-0.0116,-0.002,-0.0062,0.0003,-0.0005,0.0007,30,-40.87,-25.85,-42.4,120.78,0.48,4.52,5,23.21,,,,NaN,,,,0 / 0,11506,2018-08-11 08:38:38:444
-0.7609,-0.0849,9.8193,-0.7756,-0.0807,9.7756,0.0098,0.0006,-0.0028,0.0027,-0.0005,-0.0005,30,-41.57,-25.89,-40.03,120.29,0.48,4.54,5,22.514,,,,NaN,,,,0 / 0,12006,2018-08-11 08:38:38:944
-0.7693,-0.0682,9.8492,-0.7752,-0.0826,9.7756,-0.0059,-0.0035,-0.0013,0.0015,-0.0005,-0.0005,30,-42.12,-26.48,-40.34,120.3,0.49,4.53,5,24.537,,,,NaN,,,,0 / 0,12506,2018-08-11 08:38:39:444
-0.7849,-0.0861,9.8372,-0.7751,-0.0795,9.7756,-0.004,-0.0068,0.0046,0.0027,-0.0005,0.0007,30,-41.59,-26.49,-40.04,120.28,0.47,4.53,5,23.032,,,,NaN,,,,0 / 0,13006,2018-08-11 08:38:39:944
-0.7801,-0.0885,9.842,-0.7731,-0.0767,9.7758,-0.0057,0.0015,0.0124,0.0003,-0.0005,0.0007,30,-40.88,-26.47,-41.23,120.8,0.45,4.52,5,25.252,,,,NaN,,,,0 / 0,13507,2018-08-11 08:38:40:445
-0.7825,-0.0849,9.8121,-0.7701,-0.0756,9.7761,-0.0051,-0.0023,-0.0056,0.0003,0.0007,0.0007,30,-43.15,-26.19,-39.14,119.77,0.44,4.5,5,25.246,,,,NaN,,,,0 / 0,14007,2018-08-11 08:38:40:945
-0.7765,-0.0861,9.8265,-0.7748,-0.0799,9.7757,-0.0002,-0.0053,-0.0061,0.0003,-0.0005,0.0007,30,-41.59,-26.49,-40.04,120.28,0.46,4.53,5,22.711,,,,NaN,,,,0 / 0,14507,2018-08-11 08:38:41:445
-0.7777,-0.0742,9.8301,-0.7677,-0.0785,9.7762,0.0167,-0.0042,0.012,0.0015,-0.0005,0.0007,30,-42.67,-27.08,-40.05,120.68,0.46,4.49,5,23.251,,,,NaN,,,,0 / 0,15007,2018-08-11 08:38:41:945
-0.7861,-0.0742,9.8336,-0.7695,-0.082,9.7761,0.0136,0.0027,0.0098,0.0015,0.0007,0.0007,30,-41.94,-26.79,-39.46,121.28,0.48,4.51,5,21.353,,,,NaN,,,,0 / 0,15506,2018-08-11 08:38:42:444
-0.7896,-0.0813,9.8241,-0.7718,-0.0809,9.7759,-0.0005,-0.0068,0.0019,0.0015,-0.0005,0.002,30,-41.25,-26.76,-41.23,121.77,0.47,4.51,5,24.537,,,,NaN,,,,0 / 0,16006,2018-08-11 08:38:42:944
-0.7765,-0.0909,9.8133,-0.7734,-0.0797,9.7758,-0.0017,-0.0107,-0.0091,0.0015,-0.0005,0.0007,30,-41.4,-26.51,-39.16,121.84,0.46,4.52,5,25.066,,,,NaN,,,,0 / 0,16506,2018-08-11 08:38:43:444
-0.7801,-0.0837,9.8205,-0.773,-0.0779,9.7758,-0.0048,-0.0057,-0.0085,0.0015,-0.0005,0.0007,30,-41.25,-26.76,-41.23,121.76,0.45,4.52,5,21.712,,,,NaN,,,,0 / 0,17007,2018-08-11 08:38:43:945
-0.7753,-0.0826,9.8372,-0.7692,-0.0779,9.7761,-0.0024,-0.0047,0.0056,0.0015,-0.0005,0.002,30,-41.23,-26.49,-40.05,120.85,0.46,4.5,5,22.636,,,,NaN,,,,0 / 0,17507,2018-08-11 08:38:44:445
-0.7705,-0.0933,9.8372,-0.7737,-0.0804,9.7758,0.0032,-0.0048,-0.0101,-0.001,-0.0005,0.0007,30,-42.29,-26.8,-38.86,121.26,0.46,4.53,5,22.76,,,,NaN,,,,0 / 0,18007,2018-08-11 08:38:44:945
-0.7825,-0.0826,9.8384,-0.774,-0.0815,9.7757,0.0021,0.0003,0.0072,0.0015,-0.0005,0.0007,30,-42.12,-26.79,-39.75,121.23,0.48,4.53,5,21.958,,,,NaN,,,,0 / 0,18507,2018-08-11 08:38:45:445
-0.7837,-0.0849,9.8324,-0.773,-0.0828,9.7758,-0.0054,-0.0029,0.0007,0.0015,-0.0005,0.0007,30,-41.58,-25.88,-40.62,120.27,0.49,4.52,5,23.373,,,,NaN,,,,0 / 0,19007,2018-08-11 08:38:45:945
-0.7813,-0.0933,9.8289,-0.7734,-0.0833,9.7758,-0.0033,-0.0097,-0.0056,0.0015,-0.0005,-0.0005,30,-41.06,-26.47,-40.93,120.82,0.48,4.52,5,24.312,,,,NaN,,,,0 / 0,19506,2018-08-11 08:38:46:444
-0.7801,-0.0873,9.8145,-0.7745,-0.082,9.7757,0.0063,-0.002,-0.0175,0.0015,-0.0005,0.0007,30,-41.08,-27.08,-40.35,121.8,0.48,4.53,5,20.326,,,,NaN,,,,0 / 0,20007,2018-08-11 08:38:46:945
-0.7717,-0.0885,9.8277,-0.7747,-0.0792,9.7757,-0.005,-0.0042,-0.0059,0.0003,-0.0005,0.0007,30,-41.62,-27.36,-41.24,121.19,0.46,4.53,5,21.242,,,,NaN,,,,0 / 0,20507,2018-08-11 08:38:47:445
-0.7777,-0.0766,9.8253,-0.7705,-0.0809,9.776,-0.0023,0.0019,-0.005,0.0003,-0.0005,-0.0005,30,-42.48,-27.08,-39.75,121.24,0.47,4.51,5,27.373,,,,NaN,,,,0 / 0,21007,2018-08-11 08:38:47:945
-0.792,-0.0766,9.8444,-0.7762,-0.081,9.7755,-0.0069,-0.0055,-0.007,0.0003,-0.0005,0.0007,30,-41.79,-27.05,-41.53,121.15,0.47,4.53,5,28.1,,,,NaN,,,,0 / 0,21507,2018-08-11 08:38:48:445
-0.7813,-0.0802,9.8169,-0.7775,-0.0797,9.7755,0.003,-0.0005,0.0076,0.0003,-0.0005,0.0007,30,-41.43,-27.07,-40.94,121.75,0.47,4.55,5,23.69,,,,NaN,,,,0 / 0,22008,2018-08-11 08:38:48:946
-0.7861,-0.0802,9.8336,-0.7763,-0.0782,9.7756,-0.0038,0.0028,0.0091,0.0003,-0.0005,0.0007,30,-42.13,-27.08,-39.76,121.22,0.46,4.54,5,22.247,,,,NaN,,,,0 / 0,22507,2018-08-11 08:38:49:445
-0.7944,-0.0969,9.8277,-0.7787,-0.0814,9.7753,-0.005,0.0021,0.0063,0.0003,-0.0005,0.0007,30,-41.24,-26.79,-40.05,121.79,0.48,4.55,5,23.347,,,,NaN,,,,0 / 0,23008,2018-08-11 08:38:49:946
-0.7861,-0.0885,9.8253,-0.7745,-0.081,9.7757,-0.0075,-0.0062,-0.0046,0.0003,-0.0005,0.0007,30,-42.15,-27.37,-40.35,121.23,0.47,4.53,5,27.447,,,,NaN,,,,0 / 0,23507,2018-08-11 08:38:50:445
-0.7825,-0.0742,9.8408,-0.7729,-0.0788,9.7758,-0.0046,0.0041,0.0101,0.0003,-0.0005,0.0007,30,-41.62,-27.05,-41.83,121.15,0.46,4.52,5,22.14,,,,NaN,,,,0 / 0,24006,2018-08-11 08:38:50:944
-0.7872,-0.0694,9.842,-0.7739,-0.0755,9.7758,-0.0056,-0.0045,-0.002,0.0015,-0.0005,0.0007,30,-41.76,-26.48,-40.34,120.27,0.44,4.52,5,20.244,,,,NaN,,,,0 / 0,24508,2018-08-11 08:38:51:446
-0.7538,-0.0802,9.8492,-0.7773,-0.0793,9.7755,0.0026,-0.0017,0.0021,0.0015,-0.0005,0.0007,30,-42.14,-27.38,-39.76,121.22,0.46,4.55,5,21.155,,,,NaN,,,,0 / 0,25006,2018-08-11 08:38:51:944
-0.7729,-0.0813,9.8372,-0.773,-0.0804,9.7758,-0.0003,-0.0027,0.0002,0.0003,-0.0005,0.0007,30,-41.96,-27.06,-41.23,121.19,0.47,4.52,5,23.212,,,,NaN,,,,0 / 0,25507,2018-08-11 08:38:52:445
-0.7872,-0.0885,9.8241,-0.7731,-0.0807,9.7758,-0.0063,-0.0051,0.001,0.0003,-0.0005,0.0007,30,-40.87,-26.18,-40.63,120.82,0.47,4.52,5,23.227,,,,NaN,,,,0 / 0,26007,2018-08-11 08:38:52:945
-0.7837,-0.0909,9.8145,-0.7729,-0.0806,9.7758,-0.0038,-0.0106,-0.0092,0.0027,-0.0005,0.0007,30,-42.14,-27.06,-40.94,121.19,0.47,4.52,5,23.8,,,,NaN,,,,0 / 0,26507,2018-08-11 08:38:53:445
-0.7789,-0.0802,9.8217,-0.7723,-0.0797,9.7759,-0.0052,0.0028,0.0011,0.0015,-0.0005,0.0007,30,-41.44,-27.37,-40.95,121.77,0.47,4.51,5,20.436,,,,NaN,,,,0 / 0,27007,2018-08-11 08:38:53:945
-0.7825,-0.0885,9.8336,-0.7725,-0.0775,9.7759,-0.0056,-0.006,0,0.0015,-0.0005,0.002,30,-41.76,-26.48,-40.34,120.28,0.45,4.52,5,22.244,,,,NaN,,,,0 / 0,27507,2018-08-11 08:38:54:445
-0.7406,-0.0742,9.8564,-0.7697,-0.0759,9.7761,0.0062,-0.0046,0.0095,0.0015,-0.0005,-0.0005,30,-41.94,-26.46,-41.22,120.24,0.44,4.51,5,26.053,,,,NaN,,,,0 / 0,28007,2018-08-11 08:38:54:945
-0.792,-0.0742,9.848,-0.7718,-0.0801,9.7759,-0.006,-0.0005,0.0036,0.0003,0.0007,0.0007,30,-42.67,-27.08,-40.05,120.68,0.47,4.51,5,21.822,,,,NaN,,,,0 / 0,28507,2018-08-11 08:38:55:445
-0.7944,-0.1029,9.8432,-0.7723,-0.0795,9.7759,0.0009,-0.0093,0.0137,-0.001,0.0019,0.0007,30,-41.58,-26.5,-39.45,120.32,0.46,4.51,5,21.706,,,,NaN,,,,0 / 0,29007,2018-08-11 08:38:55:945
-0.7741,-0.0813,9.8348,-0.7705,-0.0793,9.776,-0.0006,-0.0069,-0.0082,-0.001,-0.0005,-0.0005,30,-41.07,-26.78,-40.35,121.8,0.46,4.51,5,26.08,,,,NaN,,,,0 / 0,29507,2018-08-11 08:38:56:445
-0.7681,-0.0909,9.8336,-0.7657,-0.0791,9.7764,0.0009,-0.0105,-0.0082,0.0003,-0.0005,0.0007,30,-41.05,-26.19,-40.34,120.86,0.46,4.48,5,26.081,,,,NaN,,,,0 / 0,30006,2018-08-11 08:38:56:944
-0.7777,-0.0778,9.8408,-0.7705,-0.0801,9.776,-0.0071,-0.0039,0.002,-0.001,-0.0018,0.0007,30,-41.59,-26.48,-40.63,120.26,0.46,4.51,5,23.25,,,,NaN,,,,0 / 0,30507,2018-08-11 08:38:57:445
-0.7645,-0.0813,9.8516,-0.7707,-0.0779,9.776,-0.0039,0.0021,-0.0004,0.0003,0.0007,0.0007,30,-41.78,-27.4,-39.17,121.26,0.46,4.51,5,25.49,,,,NaN,,,,0 / 0,31007,2018-08-11 08:38:57:945
-0.7753,-0.0778,9.8396,-0.7719,-0.0777,9.7759,-0.0054,-0.0004,0.0033,0.0003,-0.0018,0.0007,30,-41.77,-26.79,-39.75,121.22,0.46,4.52,5,23.738,,,,NaN,,,,0 / 0,31507,2018-08-11 08:38:58:445
-0.7837,-0.0826,9.8348,-0.7723,-0.0783,9.7759,-0.0072,-0.0034,-0.0057,0.0003,-0.0005,0.0007,30,-41.8,-27.66,-40.95,122.11,0.46,4.51,5,22.225,,,,NaN,,,,0 / 0,32008,2018-08-11 08:38:58:946
-0.7837,-0.0789,9.8301,-0.771,-0.0778,9.776,-0.0053,0.0005,-0.0052,0.0003,-0.0005,0.0007,30,-42.3,-27.09,-39.46,121.26,0.46,4.51,5,23.717,,,,NaN,,,,0 / 0,32507,2018-08-11 08:38:59:445
-0.7729,-0.0849,9.8528,-0.768,-0.0779,9.7762,-0.0012,0.0016,0.005,0.0003,-0.0005,-0.0005,30,-42.12,-26.49,-39.74,120.29,0.46,4.49,5,22.658,,,,NaN,,,,0 / 0,33006,2018-08-11 08:38:59:944
-0.7801,-0.0742,9.8492,-0.7733,-0.0803,9.7758,-0.0019,0.0043,-0.0003,0.0003,-0.0005,0.0007,30,-41.6,-27.41,-38.88,121.27,0.47,4.52,5,27.825,,,,NaN,,,,0 / 0,33506,2018-08-11 08:39:00:444
-0.7789,-0.0754,9.8336,-0.7725,-0.0795,9.7758,-0.0038,-0.0023,-0.003,0.0003,-0.0005,-0.0005,30,-41.24,-26.48,-40.64,120.81,0.46,4.52,5,21.409,,,,NaN,,,,0 / 0,34007,2018-08-11 08:39:00:945
-0.7896,-0.0789,9.8444,-0.775,-0.0787,9.7757,-0.008,0,0.0057,0.0003,-0.0005,0.0007,30,-40.69,-26.2,-39.75,120.84,0.46,4.53,5,24.785,,,,NaN,,,,0 / 0,34508,2018-08-11 08:39:01:446
-0.7837,-0.0861,9.8336,-0.7671,-0.0787,9.7763,0.001,-0.0056,0.0021,0.0003,-0.0005,0.0007,30,-41.42,-27.08,-40.35,121.81,0.46,4.49,5,23.316,,,,NaN,,,,0 / 0,35006,2018-08-11 08:39:01:944
-0.7525,-0.0718,9.8588,-0.7713,-0.0756,9.776,0.0058,0.0007,0.0014,0.0015,-0.0005,0.0007,30,-41.61,-27.06,-41.24,121.18,0.45,4.52,5,21.286,,,,NaN,,,,0 / 0,35507,2018-08-11 08:39:02:445
-0.7717,-0.0694,9.8552,-0.7741,-0.0782,9.7757,-0.0074,-0.0075,0.0051,0.0003,-0.0005,-0.0005,30,-41.44,-27.37,-40.95,121.75,0.45,4.52,5,20.582,,,,NaN,,,,0 / 0,36006,2018-08-11 08:39:02:944
-0.7813,-0.0802,9.8396,-0.7722,-0.0774,9.7759,-0.0036,-0.0036,0.0018,-0.001,-0.0005,0.002,30,-42.67,-27.7,-38.88,121.61,0.45,4.51,5,21.943,,,,NaN,,,,0 / 0,36507,2018-08-11 08:39:03:445
-0.7681,-0.0921,9.8444,-0.776,-0.0808,9.7756,0.0078,-0.0118,0.0037,0.0003,-0.0005,0.0007,30,-42.68,-27.68,-39.47,121.61,0.46,4.55,5,23.064,,,,NaN,,,,0 / 0,37008,2018-08-11 08:39:03:946
-0.7633,-0.0718,9.8576,-0.7747,-0.0776,9.7757,-0.0004,0.0025,-0.0033,0.0015,-0.0005,0.0007,30,-41.96,-26.75,-41.82,121.14,0.45,4.53,5,20.643,,,,NaN,,,,0 / 0,37507,2018-08-11 08:39:04:445
-0.7705,-0.0897,9.8456,-0.7682,-0.078,9.7762,-0.0031,-0.0054,0.0012,0.0015,-0.0005,0.0007,30,-42.33,-27.98,-39.48,122.19,0.46,4.49,5,20.972,,,,NaN,,,,0 / 0,38007,2018-08-11 08:39:04:945
-0.7741,-0.0813,9.8324,-0.769,-0.0775,9.7761,0.0068,-0.0094,-0.0072,0.0003,-0.0005,0.0007,30,-41.78,-27.09,-39.76,121.23,0.45,4.5,5,24.66,,,,NaN,,,,0 / 0,38507,2018-08-11 08:39:05:445
-0.7597,-0.0706,9.8612,-0.7732,-0.0792,9.7758,0.0087,-0.0019,0.005,0.0015,-0.0005,-0.0005,30,-41.95,-26.76,-41.23,121.19,0.46,4.53,5,24.121,,,,NaN,,,,0 / 0,39006,2018-08-11 08:39:05:944
-0.7896,-0.0754,9.8468,-0.7679,-0.0772,9.7762,-0.0073,0.0034,-0.0045,0.0015,-0.0005,0.0007,30,-42.33,-27.65,-41.24,122.11,0.45,4.49,5,24.094,,,,NaN,,,,0 / 0,39506,2018-08-11 08:39:06:444
-0.7729,-0.0826,9.8348,-0.7692,-0.0786,9.7761,-0.0043,0.0017,-0.0001,0.0003,-0.0005,0.0007,30,-41.07,-26.78,-40.35,121.81,0.46,4.5,5,24.422,,,,NaN,,,,0 / 0,40007,2018-08-11 08:39:06:945
-0.7813,-0.0849,9.8372,-0.768,-0.0776,9.7762,-0.0035,0.008,0.0009,-0.001,-0.0005,0.0007,30,-41.59,-26.8,-39.46,121.28,0.46,4.49,5,25.666,,,,NaN,,,,0 / 0,40507,2018-08-11 08:39:07:445
-0.7813,-0.0885,9.8408,-0.7694,-0.0782,9.7761,-0.0065,-0.01,-0.0019,0.0015,-0.0005,0.002,30,-41.24,-26.78,-40.64,121.76,0.45,4.5,5,23.372,,,,NaN,,,,0 / 0,41008,2018-08-11 08:39:07:946
-0.7813,-0.0849,9.8372,-0.7682,-0.0814,9.7762,-0.0027,-0.0096,0.0019,0.0003,-0.0005,-0.0005,30,-40.54,-26.78,-40.65,121.78,0.47,4.49,5,25.064,,,,NaN,,,,0 / 0,41507,2018-08-11 08:39:08:445
-0.7885,-0.0766,9.8324,-0.7713,-0.0798,9.7759,-0.0087,0.0022,0,0.0003,-0.0005,0.0007,30,-41.24,-26.78,-40.64,121.77,0.47,4.51,5,23.344,,,,NaN,,,,0 / 0,42008,2018-08-11 08:39:08:946
-0.7813,-0.0849,9.8396,-0.7728,-0.0794,9.7758,-0.0014,-0.005,-0.0004,0.0003,-0.0005,0.0007,30,-41.61,-27.39,-39.47,121.26,0.46,4.52,5,25.077,,,,NaN,,,,0 / 0,42507,2018-08-11 08:39:09:445
-0.7717,-0.0897,9.842,-0.7698,-0.078,9.7761,0.0048,-0.0105,-0.0027,0.0003,-0.0005,-0.0005,30,-41.94,-26.79,-39.46,121.26,0.45,4.51,5,21.583,,,,NaN,,,,0 / 0,43007,2018-08-11 08:39:09:945
-0.7705,-0.0802,9.8432,-0.768,-0.0813,9.7762,-0.0087,-0.0012,-0.0062,0.0003,-0.0005,0.0007,30,-41.79,-27.05,-41.53,121.17,0.47,4.49,5,21.772,,,,NaN,,,,0 / 0,43507,2018-08-11 08:39:10:445
-0.7765,-0.0849,9.842,-0.772,-0.0775,9.7759,-0.0044,0.0011,0.0004,-0.001,0.0007,-0.0005,30,-39.98,-25.58,-41.51,121.35,0.45,4.52,5,22.356,,,,NaN,,,,0 / 0,44006,2018-08-11 08:39:10:944
-0.7693,-0.0849,9.8504,-0.7697,-0.0804,9.7761,-0.0024,-0.0018,-0.0031,0.0003,-0.0005,0.0007,30,-42.15,-27.67,-40.36,122.16,0.47,4.5,5,23.437,,,,NaN,,,,0 / 0,44508,2018-08-11 08:39:11:446
-0.7633,-0.0766,9.8432,-0.7694,-0.0789,9.7761,0.0003,-0.0137,-0.014,0.0015,-0.0005,-0.0005,30,-41.44,-27.37,-40.95,121.76,0.45,4.5,5,22.078,,,,NaN,,,,0 / 0,45007,2018-08-11 08:39:11:945
-0.7753,-0.0909,9.8516,-0.7666,-0.0786,9.7763,0.0031,-0.0046,0.0059,0.0003,-0.0005,0.0007,30,-41.95,-27.08,-40.05,121.23,0.46,4.49,5,22.359,,,,NaN,,,,0 / 0,45507,2018-08-11 08:39:12:445
-0.7657,-0.0813,9.8468,-0.7643,-0.0748,9.7765,0.0021,-0.0094,0.0004,0.0003,-0.0005,0.0007,30,-40.35,-26.48,-40.94,121.39,0.43,4.47,5,21.442,,,,NaN,,,,0 / 0,46007,2018-08-11 08:39:12:945
-0.7681,-0.0802,9.8372,-0.7667,-0.0792,9.7763,-0.0018,-0.0055,-0.0009,0.0003,-0.0005,0.0007,30,-42.3,-27.09,-39.46,121.27,0.46,4.48,5,20.229,,,,NaN,,,,0 / 0,46506,2018-08-11 08:39:13:444
-0.7801,-0.0789,9.8372,-0.7684,-0.0774,9.7762,0.0029,-0.0094,-0.0062,0.0003,-0.0005,0.0007,30,-42.3,-27.09,-39.46,121.26,0.44,4.5,5,25.996,,,,NaN,,,,0 / 0,47007,2018-08-11 08:39:13:945
-0.7837,-0.0766,9.8301,-0.7667,-0.0788,9.7763,-0.0119,0.0028,-0.0117,0.0003,-0.0005,0.0007,30,-41.95,-27.08,-40.05,121.24,0.46,4.48,5,24.67,,,,NaN,,,,0 / 0,47508,2018-08-11 08:39:14:446
-0.7645,-0.0766,9.8384,-0.7689,-0.0766,9.7762,0.0023,-0.0011,-0.0055,0.0003,-0.0005,-0.0005,30,-41.95,-27.08,-40.05,121.22,0.45,4.5,5,23.264,,,,NaN,,,,0 / 0,48007,2018-08-11 08:39:14:945
-0.7645,-0.0909,9.854,-0.7678,-0.0782,9.7762,0.0159,-0.0065,0.0134,0.0003,0.0007,0.0007,30,-41.59,-26.48,-40.63,120.26,0.46,4.49,5,23.514,,,,NaN,,,,0 / 0,48507,2018-08-11 08:39:15:445
-0.7669,-0.0718,9.8528,-0.771,-0.076,9.776,0.0078,0.0039,0.0066,0.0015,-0.0005,0.0007,30,-41.78,-27.39,-39.76,121.22,0.45,4.52,5,20.371,,,,NaN,,,,0 / 0,49007,2018-08-11 08:39:15:945
-0.7693,-0.0802,9.8396,-0.7676,-0.0738,9.7763,-0.005,-0.0015,0.0005,0.0015,-0.0018,0.0007,30,-41.59,-26.48,-40.63,120.24,0.43,4.49,5,20.171,,,,NaN,,,,0 / 0,49507,2018-08-11 08:39:16:445
-0.7705,-0.0789,9.8468,-0.764,-0.0757,9.7765,0.0071,-0.0056,0.007,0.0003,-0.0005,0.0007,30,-41.93,-26.5,-39.45,120.33,0.44,4.47,5,24.858,,,,NaN,,,,0 / 0,50008,2018-08-11 08:39:16:946
-0.7693,-0.0813,9.8432,-0.7707,-0.0795,9.776,-0.0044,-0.0034,0.0017,0.0003,-0.0005,0.0007,30,-40.7,-25.87,-41.51,120.78,0.46,4.5,5,23.865,,,,NaN,,,,0 / 0,50507,2018-08-11 08:39:17:445
-0.7801,-0.073,9.8313,-0.7699,-0.0778,9.7761,0.0032,-0.0056,-0.0153,0.0003,-0.0005,0.0007,30,-41.6,-27.1,-39.46,121.26,0.45,4.5,5,23.247,,,,NaN,,,,0 / 0,51007,2018-08-11 08:39:17:945
-0.7717,-0.0789,9.8504,-0.7655,-0.0776,9.7764,0.0038,0.005,0.0054,0.0015,-0.0005,0.0007,30,-41.59,-26.49,-40.04,120.3,0.47,4.49,5,22.232,,,,NaN,,,,0 / 0,51508,2018-08-11 08:39:18:446
-0.7657,-0.0861,9.8432,-0.7693,-0.0761,9.7761,-0.0049,0.0025,-0.0053,0.0003,-0.0018,-0.0005,30,-41.95,-27.08,-40.05,121.22,0.44,4.5,5,23.896,,,,NaN,,,,0 / 0,52007,2018-08-11 08:39:18:945
-0.7753,-0.0909,9.8384,-0.7679,-0.0803,9.7762,0.0068,-0.0045,0,0.0003,-0.0005,0.0007,30,-40.69,-25.89,-40.33,120.86,0.47,4.5,5,22.906,,,,NaN,,,,0 / 0,52507,2018-08-11 08:39:19:445
-0.7837,-0.0921,9.842,-0.7705,-0.0779,9.776,-0.0127,-0.0007,0.0032,0.0003,-0.0005,-0.0005,30,-41.6,-26.77,-40.64,121.19,0.45,4.51,5,24.939,,,,NaN,,,,0 / 0,53007,2018-08-11 08:39:19:945
-0.7777,-0.0813,9.8372,-0.7691,-0.0759,9.7762,-0.0043,-0.0051,-0.0057,0.0003,-0.0005,0.0007,30,-40.71,-26.48,-40.93,120.81,0.44,4.5,5,24.769,,,,NaN,,,,0 / 0,53508,2018-08-11 08:39:20:446
-0.7801,-0.0849,9.8504,-0.7739,-0.0756,9.7758,0.0009,-0.0079,-0.0074,0.0003,-0.0005,0.0007,30,-41.95,-27.08,-40.05,121.21,0.44,4.53,5,21.311,,,,NaN,,,,0 / 0,54007,2018-08-11 08:39:20:945
-0.7765,-0.0754,9.8468,-0.767,-0.081,9.7763,0.0035,-0.0029,0.0029,0.0003,-0.0005,0.0007,30,-42.3,-26.78,-40.05,121.24,0.47,4.49,5,26.149,,,,NaN,,,,0 / 0,54507,2018-08-11 08:39:21:445
-0.7071,-0.0502,9.7116,-0.76,-0.071,9.7769,0.0352,0.0208,0.0258,0.0027,-0.0018,-0.0005,30,-42.13,-27.1,-39.17,121.26,0.45,4.5,5,27.36,,,,NaN,,,,0 / 0,55007,2018-08-11 08:39:21:945
-0.7837,-0.0873,9.8336,-0.7616,-0.075,9.7767,-0.012,-0.0118,-0.0061,0.0003,-0.0005,0.0007,30,-41.77,-26.79,-39.75,121.23,0.43,4.45,5,22.257,,,,NaN,,,,0 / 0,55507,2018-08-11 08:39:22:445
-0.7741,-0.0873,9.8372,-0.7691,-0.0761,9.7761,-0.0076,-0.0022,-0.0018,0.0003,-0.0005,0.0007,30,-41.95,-27.08,-40.05,121.22,0.44,4.49,5,23.989,,,,NaN,,,,0 / 0,56007,2018-08-11 08:39:22:945
-0.7753,-0.073,9.8432,-0.7682,-0.078,9.7762,-0.0101,-0.0064,-0.0049,0.0003,0.0007,0.0007,30,-42.3,-26.46,-41.22,120.26,0.46,4.49,5,24.857,,,,NaN,,,,0 / 0,56507,2018-08-11 08:39:23:445
-0.7801,-0.0813,9.8492,-0.7676,-0.0746,9.7763,-0.006,-0.0024,0.0003,0.0015,-0.0005,0.0007,30,-41.96,-27.39,-39.47,121.26,0.44,4.49,5,23.222,,,,NaN,,,,0 / 0,57006,2018-08-11 08:39:23:944
-0.7478,-0.0718,9.8588,-0.7664,-0.0705,9.7764,0.0005,0.0057,-0.0041,0.0015,-0.0005,0.0007,30,-42.3,-27.09,-39.46,121.25,0.41,4.48,5,23.813,,,,NaN,,,,0 / 0,57508,2018-08-11 08:39:24:446
-0.7861,-0.0849,9.8289,-0.767,-0.0774,9.7763,-0.0028,-0.0113,-0.0027,0.0003,0.0007,-0.0005,30,-42.15,-27.68,-39.77,122.15,0.44,4.48,5,22.645,,,,NaN,,,,0 / 0,58007,2018-08-11 08:39:24:945
-0.7813,-0.0849,9.8384,-0.7669,-0.0802,9.7763,-0.0036,-0.0033,0.0002,0.0003,-0.0005,-0.0005,30,-42.3,-27.09,-39.46,121.28,0.47,4.49,5,22.75,,,,NaN,,,,0 / 0,58506,2018-08-11 08:39:25:444
-0.7896,-0.0873,9.8313,-0.7651,-0.0793,9.7764,-0.019,-0.002,-0.0084,0.0003,-0.0005,0.0007,30,-41.95,-27.08,-40.05,121.25,0.46,4.46,5,23.276,,,,NaN,,,,0 / 0,59006,2018-08-11 08:39:25:944
-0.7872,-0.0873,9.836,-0.7698,-0.0765,9.7761,-0.0019,-0.0041,0.0035,0.0003,-0.0005,-0.0005,30,-41.75,-26.21,-39.15,120.32,0.44,4.5,5,21.279,,,,NaN,,,,0 / 0,59507,2018-08-11 08:39:26:445
-0.7693,-0.0789,9.8504,-0.7665,-0.078,9.7763,0.002,-0.0004,0.0042,-0.001,-0.0005,0.0007,30,-41.97,-27.35,-41.24,121.2,0.45,4.49,5,22.299,,,,NaN,,,,0 / 0,60008,2018-08-11 08:39:26:946
-0.7561,-0.0682,9.86,-0.7674,-0.0754,9.7763,-0.0031,0.0058,0.0059,-0.001,-0.0005,0.0007,30,-42.14,-27.38,-39.76,121.23,0.44,4.49,5,21.436,,,,NaN,,,,0 / 0,60507,2018-08-11 08:39:27:445
-0.7645,-0.0658,9.854,-0.7686,-0.0746,9.7762,-0.0007,-0.0037,-0.0016,0.0015,-0.0005,0.0007,30,-42.49,-27.37,-40.35,121.22,0.44,4.5,5,20.408,,,,NaN,,,,0 / 0,61007,2018-08-11 08:39:27:945
-0.749,-0.0873,9.8647,-0.7575,-0.0761,9.7771,0.0096,-0.0091,0.0127,0.0015,-0.0005,0.0007,30,-42.66,-27.41,-38.28,120.76,0.44,4.44,5,22.236,,,,NaN,,,,0 / 0,61508,2018-08-11 08:39:28:446
-0.7693,-0.0682,9.8528,-0.7661,-0.0738,9.7764,-0.0025,-0.004,-0.0074,0.0015,0.0007,0.0007,30,-41.42,-26.76,-41.53,121.72,0.43,4.48,5,22.827,,,,NaN,,,,0 / 0,62006,2018-08-11 08:39:28:944
-0.7669,-0.0909,9.848,-0.7661,-0.0797,9.7764,-0.0137,0.0064,0.0013,-0.001,0.0007,-0.0005,30,-42.15,-27.37,-40.35,121.25,0.47,4.47,5,21.3,,,,NaN,,,,0 / 0,62507,2018-08-11 08:39:29:445
-0.7585,-0.0694,9.8707,-0.7634,-0.0807,9.7766,0.0018,-0.0056,-0.0038,0.0003,-0.0018,-0.0005,30,-41.6,-26.77,-40.64,121.22,0.47,4.46,5,24.071,,,,NaN,,,,0 / 0,63006,2018-08-11 08:39:29:944
-0.7502,-0.0778,9.8624,-0.7656,-0.0731,9.7764,0.0091,0.0002,0.0035,0.0003,-0.0005,0.0007,30,-40.89,-26.78,-40.64,121.75,0.43,4.49,5,22.115,,,,NaN,,,,0 / 0,63506,2018-08-11 08:39:30:444
-0.7729,-0.0766,9.8504,-0.7598,-0.0737,9.7769,0.0106,0.0039,0.011,0.0003,-0.0005,-0.0005,30,-42.14,-27.71,-38.59,122.19,0.44,4.46,5,24.489,,,,NaN,,,,0 / 0,64008,2018-08-11 08:39:30:946
-0.7789,-0.0849,9.8384,-0.769,-0.078,9.7761,-0.0045,-0.0064,-0.005,0.0003,-0.0005,-0.0005,30,-42.12,-26.79,-39.75,121.23,0.45,4.5,5,21.757,,,,NaN,,,,0 / 0,64507,2018-08-11 08:39:31:445
-0.7872,-0.0766,9.8396,-0.765,-0.0783,9.7765,0.0042,0.0015,-0.0044,0.0003,-0.0005,0.0007,30,-42.15,-27.36,-40.94,121.2,0.46,4.48,5,22.584,,,,NaN,,,,0 / 0,65007,2018-08-11 08:39:31:945
-0.7789,-0.0682,9.8468,-0.7666,-0.0732,9.7764,-0.003,0.0004,-0.0022,0.0015,-0.0018,-0.0005,30,-41.06,-26.79,-39.76,121.79,0.43,4.48,5,23.534,,,,NaN,,,,0 / 0,65507,2018-08-11 08:39:32:445
-0.7609,-0.0706,9.866,-0.7692,-0.0731,9.7762,-0.0024,0.0025,0.0005,0.0003,-0.0005,0.0007,30,-41.26,-27.38,-40.06,121.79,0.43,4.5,5,21.643,,,,NaN,,,,0 / 0,66006,2018-08-11 08:39:32:944
-0.7729,-0.073,9.8432,-0.7674,-0.0749,9.7763,0,0.0024,-0.0015,0.0003,-0.0005,0.0007,30,-40.72,-27.1,-39.77,121.8,0.44,4.49,5,24.713,,,,NaN,,,,0 / 0,66507,2018-08-11 08:39:33:445
-0.7849,-0.0694,9.8552,-0.77,-0.0768,9.7761,0.0117,0.0033,0.0092,0.0003,0.0007,0.0007,30,-42.48,-27.1,-39.16,121.26,0.45,4.51,5,24.298,,,,NaN,,,,0 / 0,67006,2018-08-11 08:39:33:944
-0.7765,-0.0826,9.8348,-0.7645,-0.0775,9.7765,0.0005,0.0058,0.0059,0.0015,-0.0005,0.0007,30,-41.07,-26.78,-40.35,121.81,0.45,4.47,5,22.012,,,,NaN,,,,0 / 0,67507,2018-08-11 08:39:34:445
-0.7466,-0.0754,9.854,-0.766,-0.0762,9.7764,0.0138,0.0005,0.006,0.0015,-0.0005,0.0007,30,-42.69,-27.97,-40.07,121.59,0.45,4.49,5,22.052,,,,NaN,,,,0 / 0,68008,2018-08-11 08:39:34:946
-0.7741,-0.0885,9.8504,-0.7681,-0.0772,9.7762,-0.0113,-0.0036,-0.0004,0.0003,-0.0005,-0.0005,30,-41.25,-27.07,-40.65,121.77,0.45,4.49,5,21.609,,,,NaN,,,,0 / 0,68507,2018-08-11 08:39:35:445
-0.7693,-0.0826,9.8528,-0.7702,-0.0775,9.776,-0.005,-0.0051,-0.0029,0.0015,0.0007,0.0007,30,-42.13,-26.77,-40.34,121.23,0.45,4.5,5,21.425,,,,NaN,,,,0 / 0,69007,2018-08-11 08:39:35:945
-0.7861,-0.0837,9.8444,-0.7654,-0.0804,9.7764,-0.0052,-0.0028,-0.0041,0.0003,0.0007,0.0007,30,-42.48,-27.08,-39.75,121.25,0.47,4.47,5,22.616,,,,NaN,,,,0 / 0,69507,2018-08-11 08:39:36:445
-0.7753,-0.0742,9.842,-0.7633,-0.0774,9.7766,0.0095,0.0022,0.0031,0.0015,-0.0005,0.0007,30,-41.07,-26.77,-40.94,121.78,0.46,4.47,5,25.109,,,,NaN,,,,0 / 0,70007,2018-08-11 08:39:36:945
-0.7741,-0.0849,9.8468,-0.7611,-0.0788,9.7768,0.0011,-0.0059,-0.0022,0.0015,-0.0005,0.0007,30,-42.14,-27.4,-39.17,121.28,0.46,4.45,5,25.9,,,,NaN,,,,0 / 0,70507,2018-08-11 08:39:37:445
-0.7717,-0.0742,9.8444,-0.7601,-0.0755,9.7769,-0.0063,0.0019,-0.0005,0.0003,-0.0005,-0.0005,30,-41.97,-27.67,-40.65,122.13,0.44,4.45,5,26.534,,,,NaN,,,,0 / 0,71007,2018-08-11 08:39:37:945
-0.7729,-0.0634,9.8492,-0.7658,-0.074,9.7764,-0.0096,0.004,-0.0047,0.0003,-0.0005,0.0007,30,-41.6,-26.79,-40.05,121.23,0.44,4.47,5,23.534,,,,NaN,,,,0 / 0,71508,2018-08-11 08:39:38:446
-0.7717,-0.0849,9.8432,-0.7708,-0.0776,9.776,-0.01,-0.0013,-0.0041,-0.001,0.0007,0.0007,30,-41.79,-27.05,-41.53,121.15,0.45,4.51,5,27.024,,,,NaN,,,,0 / 0,72006,2018-08-11 08:39:38:944
-0.7789,-0.073,9.842,-0.7677,-0.08,9.7762,-0.0058,0.006,-0.0017,0.0003,0.0007,0.0007,30,-41.07,-26.78,-40.35,121.82,0.47,4.48,5,25.208,,,,NaN,,,,0 / 0,72506,2018-08-11 08:39:39:444
-0.7813,-0.0813,9.8241,-0.7692,-0.0813,9.7761,0.005,-0.0079,0.0033,0.0003,-0.0005,-0.0005,30,-41.77,-26.79,-39.75,121.24,0.47,4.5,5,23.915,,,,NaN,,,,0 / 0,73006,2018-08-11 08:39:39:944
-0.7777,-0.073,9.8372,-0.7671,-0.0787,9.7763,-0.008,-0.0039,-0.0047,0.0003,-0.0005,0.0007,30,-41.63,-27.67,-40.66,122.12,0.46,4.48,5,24.382,,,,NaN,,,,0 / 0,73507,2018-08-11 08:39:40:445
-0.7789,-0.0885,9.8384,-0.7685,-0.0766,9.7762,-0.005,-0.0055,-0.0049,0.0003,-0.0005,-0.0005,30,-41.24,-26.8,-39.46,121.84,0.44,4.49,5,21.838,,,,NaN,,,,0 / 0,74007,2018-08-11 08:39:40:945
-0.7777,-0.0718,9.8444,-0.7683,-0.0735,9.7762,-0.0018,-0.0036,-0.0031,0.0015,-0.0005,-0.0005,30,-40.89,-27.1,-39.47,121.83,0.43,4.49,5,23.867,,,,NaN,,,,0 / 0,74508,2018-08-11 08:39:41:446
-0.7885,-0.0754,9.8301,-0.7697,-0.0761,9.7761,-0.0098,0.0048,0.0019,0.0015,-0.0005,-0.0005,30,-42.3,-27.09,-39.46,121.27,0.45,4.5,5,22.325,,,,NaN,,,,0 / 0,75007,2018-08-11 08:39:41:945
-0.7741,-0.0766,9.8456,-0.7632,-0.0778,9.7766,0.0059,-0.0001,0.0006,0.0015,-0.0005,0.0007,30,-41.07,-26.78,-40.35,121.82,0.45,4.46,5,22.766,,,,NaN,,,,0 / 0,75507,2018-08-11 08:39:42:445
-0.7514,-0.067,9.8612,-0.7615,-0.0748,9.7768,-0.0083,0.0026,-0.006,0.0015,-0.0005,0.0007,30,-42.15,-27.68,-39.77,122.16,0.44,4.45,5,21.381,,,,NaN,,,,0 / 0,76007,2018-08-11 08:39:42:945
-0.7597,-0.0694,9.8564,-0.7667,-0.0734,9.7764,-0.0162,0.0038,-0.0081,0.0015,-0.0018,-0.0005,30,-41.97,-27.34,-41.83,121.15,0.43,4.48,5,24.433,,,,NaN,,,,0 / 0,76507,2018-08-11 08:39:43:445
-0.7693,-0.0646,9.8372,-0.7646,-0.0731,9.7765,0.0012,0.008,-0.0098,0.0003,-0.0018,-0.0005,30,-42.31,-27.39,-39.47,121.26,0.43,4.48,5,20.496,,,,NaN,,,,0 / 0,77008,2018-08-11 08:39:43:946
-0.7849,-0.0826,9.8301,-0.7686,-0.0781,9.7762,0.0046,0.0054,0.0032,-0.001,0.0007,-0.0005,30,-41.94,-27.12,-38.28,121.31,0.46,4.5,5,22.877,,,,NaN,,,,0 / 0,77506,2018-08-11 08:39:44:444
-0.7872,-0.0897,9.8408,-0.7704,-0.0789,9.776,-0.003,-0.0049,-0.0012,0.0003,0.0007,0.0007,30,-41.43,-27.06,-41.53,121.73,0.46,4.5,5,20.904,,,,NaN,,,,0 / 0,78007,2018-08-11 08:39:44:945
-0.7813,-0.0802,9.8432,-0.7699,-0.077,9.7761,-0.0088,-0.0021,-0.0022,0.0003,-0.0005,-0.0017,30,-41.81,-27.96,-40.95,122.11,0.45,4.49,5,22.152,,,,NaN,,,,0 / 0,78507,2018-08-11 08:39:45:445
-0.7849,-0.073,9.8432,-0.7689,-0.0767,9.7762,-0.0084,0.0025,-0.0053,0.0003,0.0007,-0.0005,30,-41.81,-27.65,-41.54,122.08,0.45,4.49,5,21.334,,,,NaN,,,,0 / 0,79007,2018-08-11 08:39:45:945
-0.7932,-0.0754,9.8432,-0.7689,-0.0735,9.7762,0.0006,-0.0003,0.0042,0.0003,0.0007,-0.0005,30,-42.5,-27.36,-40.94,121.18,0.43,4.5,5,20.732,,,,NaN,,,,0 / 0,79508,2018-08-11 08:39:46:446
-0.7825,-0.0742,9.8456,-0.7702,-0.0755,9.7761,-0.0005,-0.0002,0.0023,-0.001,-0.0005,0.0007,30,-41.61,-27.38,-40.06,121.22,0.44,4.5,5,25.075,,,,NaN,,,,0 / 0,80007,2018-08-11 08:39:46:945
-0.7549,-0.0682,9.8516,-0.7658,-0.0734,9.7764,0.0026,-0.0024,0.0041,-0.001,-0.0005,0.0007,30,-42.14,-27.38,-39.76,121.22,0.42,4.48,5,27.722,,,,NaN,,,,0 / 0,80508,2018-08-11 08:39:47:446
-0.7597,-0.0837,9.848,-0.7661,-0.0769,9.7764,0.0009,-0.0039,-0.0047,0.0015,0.0007,0.0007,30,-42.48,-27.07,-40.35,121.23,0.45,4.48,5,30.943,,,,NaN,,,,0 / 0,81007,2018-08-11 08:39:47:945
-0.7849,-0.0706,9.8456,-0.7653,-0.0774,9.7764,0.0155,-0.0067,0.0056,0.0003,0.0007,-0.0005,30,-41.82,-27.94,-42.14,122.08,0.45,4.49,5,21.745,,,,NaN,,,,0 / 0,81506,2018-08-11 08:39:48:444
-0.7765,-0.0694,9.842,-0.7662,-0.078,9.7764,-0.0048,0.0006,-0.0042,0.0003,0.0007,0.0007,30,-41.43,-27.39,-39.77,121.81,0.46,4.48,5,21.658,,,,NaN,,,,0 / 0,82006,2018-08-11 08:39:48:944
-0.7849,-0.0813,9.8432,-0.7679,-0.0779,9.7762,-0.0077,-0.0042,-0.0002,0.0003,-0.0005,0.0007,30,-41.95,-27.08,-40.05,121.23,0.45,4.49,5,24.126,,,,NaN,,,,0 / 0,82507,2018-08-11 08:39:49:445
-0.7777,-0.0802,9.8504,-0.7662,-0.0729,9.7764,-0.0044,0.0067,0.0063,0.0015,0.0007,-0.0005,30,-41.63,-27.67,-40.66,122.11,0.44,4.47,5,28.644,,,,NaN,,,,0 / 0,83006,2018-08-11 08:39:49:944
-0.7729,-0.0778,9.8396,-0.7653,-0.0725,9.7765,-0.0027,-0.0053,-0.0072,0.0003,0.0007,0.0007,30,-41.97,-27.68,-40.06,122.14,0.42,4.47,5,26.445,,,,NaN,,,,0 / 0,83507,2018-08-11 08:39:50:445
-0.7765,-0.0766,9.8504,-0.7642,-0.0755,9.7765,-0.0022,-0.0032,0.0023,-0.001,0.0007,0.0007,30,-41.65,-28.25,-41.26,122.11,0.44,4.47,5,27.615,,,,NaN,,,,0 / 0,84007,2018-08-11 08:39:50:945
-0.7765,-0.0694,9.8456,-0.7654,-0.0791,9.7764,-0.0003,-0.0064,0.0003,0.0003,-0.0005,-0.0005,30,-42.17,-28.27,-40.37,122.16,0.46,4.48,5,20.443,,,,NaN,,,,0 / 0,84508,2018-08-11 08:39:51:446
-0.7741,-0.067,9.8504,-0.7652,-0.0748,9.7765,-0.0036,0.0062,0.0057,0.0003,-0.0005,0.0007,30,-42.13,-27.08,-39.76,121.23,0.44,4.47,5,22.447,,,,NaN,,,,0 / 0,85006,2018-08-11 08:39:51:944
-0.7837,-0.0802,9.8372,-0.7686,-0.0769,9.7762,-0.0087,-0.0035,-0.0029,0.0003,-0.0005,-0.0005,30,-41.58,-26.5,-39.45,120.32,0.45,4.49,5,24.851,,,,NaN,,,,0 / 0,85512,2018-08-11 08:39:52:450
-0.7801,-0.0766,9.8468,-0.7676,-0.0755,9.7763,-0.0114,0.0015,0.0031,0.0015,-0.0018,0.0007,30,-41.08,-26.76,-41.53,121.73,0.45,4.49,5,24.084,,,,NaN,,,,0 / 0,86007,2018-08-11 08:39:52:945
-0.7825,-0.0742,9.8408,-0.7637,-0.0751,9.7766,0.0049,-0.0019,0.0059,0.0003,-0.0005,0.0007,30,-40.89,-26.78,-40.64,121.77,0.44,4.47,5,28.639,,,,NaN,,,,0 / 0,86507,2018-08-11 08:39:53:445
-0.7741,-0.0789,9.8432,-0.7686,-0.0734,9.7762,-0.0042,-0.0081,-0.0019,0.0003,-0.0005,-0.0005,30,-41.24,-26.8,-39.46,121.82,0.42,4.49,5,28.306,,,,NaN,,,,0 / 0,87007,2018-08-11 08:39:53:945
-0.7777,-0.0658,9.854,-0.7654,-0.076,9.7764,-0.0071,0.0004,-0.0099,0.0003,0.0007,0.0007,30,-41.78,-27.08,-40.35,121.24,0.44,4.46,5,24.21,,,,NaN,,,,0 / 0,87507,2018-08-11 08:39:54:445
-0.7717,-0.0849,9.8372,-0.7677,-0.0746,9.7763,0.0002,-0.0043,-0.0008,0.0003,-0.0005,-0.0005,30,-41.8,-27.66,-40.95,122.11,0.44,4.49,5,23.361,,,,NaN,,,,0 / 0,88007,2018-08-11 08:39:54:945
-0.7597,-0.073,9.8588,-0.7678,-0.0754,9.7763,0.005,-0.0016,0.0097,0.0003,-0.0005,-0.0005,30,-41.98,-27.96,-40.66,122.11,0.44,4.5,5,24.242,,,,NaN,,,,0 / 0,88507,2018-08-11 08:39:55:445
-0.7753,-0.0861,9.8384,-0.767,-0.0771,9.7763,-0.002,-0.0059,-0.003,0.0015,0.0007,0.0007,30,-41.8,-27.66,-40.95,122.12,0.45,4.48,5,24.187,,,,NaN,,,,0 / 0,89007,2018-08-11 08:39:55:945
-0.7765,-0.0742,9.8396,-0.7672,-0.0785,9.7763,-0.0082,-0.0037,-0.0008,0.0015,-0.0005,-0.0005,30,-40.71,-26.8,-39.76,121.81,0.46,4.48,5,24.962,,,,NaN,,,,0 / 0,89507,2018-08-11 08:39:56:445
-0.7777,-0.067,9.854,-0.7664,-0.0714,9.7764,-0.0062,0.0036,0.0055,0.0015,-0.0005,0.0007,30,-41.62,-27.37,-40.65,121.18,0.42,4.48,5,23.596,,,,NaN,,,,0 / 0,90006,2018-08-11 08:39:56:944
-0.7765,-0.067,9.854,-0.7646,-0.0718,9.7765,-0.0037,-0.0054,-0.0037,0.0003,-0.0005,0.0007,30,-42.34,-27.64,-41.83,122.06,0.42,4.47,5,24.569,,,,NaN,,,,0 / 0,90507,2018-08-11 08:39:57:445
-0.7741,-0.073,9.8408,-0.7684,-0.0727,9.7762,-0.0045,0.0007,-0.0012,0.0003,-0.0005,-0.0005,30,-41.63,-27.64,-41.84,122.06,0.42,4.49,5,21.134,,,,NaN,,,,0 / 0,91007,2018-08-11 08:39:57:945
-0.7765,-0.0873,9.8372,-0.7667,-0.0778,9.7763,-0.0031,-0.0079,-0.0034,0.0003,-0.0005,-0.0005,30,-41.26,-27.38,-40.06,121.8,0.45,4.48,5,26.847,,,,NaN,,,,0 / 0,91507,2018-08-11 08:39:58:445
-0.7813,-0.0813,9.8313,-0.7683,-0.0786,9.7762,0.0048,-0.0068,0.005,0.0003,-0.0005,-0.0005,30,-41.26,-27.38,-40.06,121.8,0.46,4.5,5,26.809,,,,NaN,,,,0 / 0,92008,2018-08-11 08:39:58:946
-0.7825,-0.0789,9.8301,-0.7644,-0.0755,9.7765,0.0024,0.0089,0.0057,-0.001,-0.0018,-0.0005,30,-41.95,-27.08,-40.05,121.23,0.44,4.47,5,27.492,,,,NaN,,,,0 / 0,92507,2018-08-11 08:39:59:445
-0.7693,-0.0849,9.848,-0.7642,-0.079,9.7765,-0.0045,-0.0024,0.0002,0.0003,-0.0005,-0.0005,30,-41.44,-27.69,-39.77,122.75,0.46,4.47,5,27.274,,,,NaN,,,,0 / 0,93007,2018-08-11 08:39:59:945
-0.7657,-0.0802,9.848,-0.7664,-0.0781,9.7763,-0.0005,-0.0065,0.0006,-0.001,-0.0005,-0.0005,30,-41.39,-26.2,-39.74,120.85,0.45,4.48,5,30.816,,,,NaN,,,,0 / 0,93507,2018-08-11 08:40:00:445
-0.7597,-0.073,9.854,-0.7696,-0.0754,9.7761,-0.0096,-0.0001,0.0029,0.0003,-0.0005,0.0007,30,-41.79,-27.05,-41.53,121.15,0.44,4.49,5,31.619,,,,NaN,,,,0 / 0,94007,2018-08-11 08:40:00:945
-0.7633,-0.0778,9.8552,-0.7665,-0.0725,9.7764,-0.0095,0.0051,0.0019,0.0003,0.0007,-0.0005,30,-41.98,-27.63,-42.43,122.06,0.42,4.48,5,28.179,,,,NaN,,,,0 / 0,94508,2018-08-11 08:40:01:446
-0.7789,-0.0754,9.8372,-0.7613,-0.0738,9.7768,0.0001,0.0012,-0.0012,0.0003,-0.0005,0.0007,30,-41.95,-26.76,-41.23,121.2,0.43,4.45,5,25.359,,,,NaN,,,,0 / 0,95008,2018-08-11 08:40:01:946
-0.7801,-0.0909,9.8396,-0.7693,-0.0755,9.7761,-0.0089,0.0042,0.0019,-0.001,-0.0005,-0.0005,30,-41.96,-27.04,-41.82,121.15,0.44,4.5,5,22.877,,,,NaN,,,,0 / 0,95507,2018-08-11 08:40:02:445
-0.7825,-0.0778,9.8324,-0.7682,-0.0776,9.7762,-0.0081,-0.0001,-0.0117,0.0003,-0.0005,0.0007,30,-42.14,-27.07,-40.35,121.23,0.45,4.49,5,23.602,,,,NaN,,,,0 / 0,96008,2018-08-11 08:40:02:946
-0.7681,-0.073,9.8336,-0.7622,-0.0754,9.7767,-0.0063,0.007,0.0016,0.0003,-0.0005,-0.0005,30,-41.24,-26.47,-41.23,120.82,0.44,4.46,5,22.309,,,,NaN,,,,0 / 0,96507,2018-08-11 08:40:03:445
-0.7633,-0.0789,9.848,-0.766,-0.0763,9.7764,0.0107,-0.0013,0.0104,0.0003,-0.0005,-0.0005,30,-40.9,-27.06,-41.24,121.76,0.45,4.49,5,23.252,,,,NaN,,,,0 / 0,97006,2018-08-11 08:40:03:944
-0.7789,-0.0778,9.836,-0.7681,-0.0776,9.7762,0.0067,0.0025,0.0075,-0.001,-0.0005,-0.0005,30,-41.43,-27.38,-40.36,121.8,0.45,4.51,5,22.446,,,,NaN,,,,0 / 0,97507,2018-08-11 08:40:04:445
-0.7813,-0.0742,9.8372,-0.767,-0.0766,9.7763,-0.0084,0.0043,-0.0061,0.0003,-0.0005,-0.0005,30,-41.42,-26.77,-40.94,121.77,0.45,4.48,5,25.616,,,,NaN,,,,0 / 0,98007,2018-08-11 08:40:04:945
-0.7717,-0.0921,9.8336,-0.7649,-0.0775,9.7765,0.018,0.0041,0.0107,0.0003,0.0007,-0.0005,30,-41.78,-26.44,-42.11,120.22,0.46,4.49,5,26.122,,,,NaN,,,,0 / 0,98508,2018-08-11 08:40:05:446
-0.7705,-0.0742,9.848,-0.7715,-0.075,9.776,-0.0099,0.01,-0.0028,0.0015,0.0007,-0.0005,30,-41.4,-26.17,-40.93,120.8,0.44,4.51,5,23.953,,,,NaN,,,,0 / 0,99007,2018-08-11 08:40:05:945
-0.7454,-0.0718,9.8576,-0.7656,-0.0762,9.7764,0.011,0.0013,0.0058,-0.001,-0.0005,-0.0005,30,-41.6,-27.1,-39.46,121.26,0.44,4.49,5,23.771,,,,NaN,,,,0 / 0,99507,2018-08-11 08:40:06:445
-0.7825,-0.0754,9.8504,-0.7674,-0.0721,9.7763,-0.0033,-0.003,-0.014,0.0003,0.0007,-0.0005,30,-42.69,-27.98,-39.47,121.61,0.42,4.49,5,26.614,,,,NaN,,,,0 / 0,100008,2018-08-11 08:40:06:946
-0.7705,-0.0694,9.8456,-0.7668,-0.0714,9.7764,0.0015,0.003,-0.0019,0.0003,0.0007,-0.0005,30,-41.06,-26.47,-40.93,120.8,0.42,4.48,5,30.067,,,,NaN,,,,0 / 0,100506,2018-08-11 08:40:07:444
-0.7741,-0.0742,9.8372,-0.7664,-0.0734,9.7764,0.0035,-0.0025,-0.0001,0.0003,-0.0005,0.0007,30,-41.94,-26.15,-41.81,120.21,0.43,4.48,5,26.496,,,,NaN,,,,0 / 0,101006,2018-08-11 08:40:07:944
-0.7633,-0.0706,9.854,-0.7692,-0.076,9.7761,-0.0013,0.0015,-0.0067,-0.001,0.0007,-0.0005,30,-41.58,-26.18,-40.63,120.25,0.44,4.5,5,26.204,,,,NaN,,,,0 / 0,101507,2018-08-11 08:40:08:445
-0.7801,-0.0861,9.836,-0.7682,-0.0788,9.7762,-0.0017,0.0105,0.0001,0.0015,-0.0005,-0.0005,30,-41.77,-26.78,-40.34,121.25,0.48,4.49,5,32.587,,,,NaN,,,,0 / 0,102007,2018-08-11 08:40:08:945
-0.7741,-0.0826,9.8456,-0.7638,-0.0801,9.7765,-0.0052,-0.0004,-0.0017,0.0003,0.0007,-0.0005,30,-42.31,-27.07,-40.64,121.21,0.47,4.46,5,25.92,,,,NaN,,,,0 / 0,102508,2018-08-11 08:40:09:446
-0.7741,-0.0861,9.8444,-0.7663,-0.0765,9.7764,0.0205,0.0049,0.0103,0.0003,-0.0005,-0.0005,30,-41.24,-26.48,-40.64,120.81,0.45,4.5,5,23.354,,,,NaN,,,,0 / 0,103007,2018-08-11 08:40:09:945
-0.7849,-0.0718,9.8552,-0.7651,-0.0751,9.7765,-0.0024,0.0003,0.0062,0.0003,-0.0005,0.0007,30,-41.6,-26.45,-41.82,120.22,0.44,4.47,5,22.053,,,,NaN,,,,0 / 0,103507,2018-08-11 08:40:10:445
-0.7705,-0.0742,9.8528,-0.7669,-0.0753,9.7763,0.0024,-0.0002,0.0004,0.0003,-0.0005,-0.0005,30,-42.15,-27.67,-40.36,122.15,0.44,4.49,5,25.101,,,,NaN,,,,0 / 0,104008,2018-08-11 08:40:10:946
-0.7633,-0.0586,9.854,-0.7664,-0.0764,9.7764,-0.0003,-0.0074,-0.0206,0.0015,-0.0005,-0.0005,30,-41.78,-27.08,-40.35,121.23,0.45,4.48,5,28.396,,,,NaN,,,,0 / 0,104506,2018-08-11 08:40:11:444
-0.7633,-0.0861,9.848,-0.7716,-0.0778,9.7759,0.0033,-0.0112,0.0052,-0.001,0.0007,-0.0005,30,-43.05,-27.94,-41.24,121.54,0.44,4.51,5,33.119,,,,NaN,,,,0 / 0,105007,2018-08-11 08:40:11:945
-0.7585,-0.0921,9.8576,-0.7685,-0.076,9.7762,0.0003,-0.0037,-0.0059,0.0003,-0.0005,-0.0005,30,-42.15,-27.35,-41.53,121.15,0.44,4.49,5,24.704,,,,NaN,,,,0 / 0,105507,2018-08-11 08:40:12:445
-0.7849,-0.0789,9.8289,-0.7656,-0.0749,9.7764,-0.0079,-0.0047,-0.0102,0.0003,-0.0005,-0.0005,30,-41.96,-27.04,-41.82,121.15,0.43,4.47,5,21.78,,,,NaN,,,,0 / 0,106007,2018-08-11 08:40:12:945
-0.7753,-0.0849,9.8384,-0.7685,-0.0775,9.7762,-0.0031,-0.004,-0.0139,0.0003,-0.0005,0.0007,30,-41.23,-26.49,-40.05,120.85,0.45,4.49,5,23.139,,,,NaN,,,,0 / 0,106508,2018-08-11 08:40:13:446
-0.7753,-0.067,9.8432,-0.7674,-0.0751,9.7763,-0.0027,0.008,0,0.0003,-0.0018,-0.0005,30,-40.35,-26.48,-40.94,121.39,0.44,4.49,5,23.028,,,,NaN,,,,0 / 0,107007,2018-08-11 08:40:13:945
-0.7789,-0.0682,9.8564,-0.7658,-0.0743,9.7764,-0.0051,-0.0062,-0.0032,0.0015,-0.0005,-0.0005,30,-42.15,-27.35,-41.53,121.15,0.43,4.48,5,22.706,,,,NaN,,,,0 / 0,107507,2018-08-11 08:40:14:445
-0.7777,-0.0742,9.8504,-0.7636,-0.073,9.7766,-0.0002,0.0053,0.0066,0.0015,-0.0005,-0.0005,30,-41.44,-27.35,-41.54,121.72,0.43,4.47,5,21.182,,,,NaN,,,,0 / 0,108007,2018-08-11 08:40:14:945
-0.7645,-0.0658,9.8444,-0.7667,-0.0705,9.7764,0.0027,0.0011,-0.0045,0.0015,-0.0005,-0.0005,30,-41.43,-27.06,-41.53,121.71,0.42,4.49,5,22.404,,,,NaN,,,,0 / 0,108506,2018-08-11 08:40:15:444
-0.7753,-0.0706,9.8432,-0.7689,-0.0731,9.7762,-0.0016,0.0008,-0.0004,-0.001,0.0007,-0.0005,30,-42.14,-27.06,-40.94,121.18,0.43,4.49,5,25.062,,,,NaN,,,,0 / 0,109007,2018-08-11 08:40:15:945
-0.7777,-0.0789,9.8384,-0.7656,-0.0786,9.7764,0.0111,0.0041,0.0015,0.0003,0.0007,-0.0005,30,-41.42,-26.76,-41.53,121.74,0.46,4.48,5,24.606,,,,NaN,,,,0 / 0,109507,2018-08-11 08:40:16:445
-0.7657,-0.0766,9.848,-0.7716,-0.0783,9.7759,-0.0017,-0.0019,0.0111,0.0003,0.0007,-0.0005,30,-41.77,-26.78,-40.34,121.23,0.46,4.51,5,25.571,,,,NaN,,,,0 / 0,110007,2018-08-11 08:40:16:945
-0.7609,-0.0778,9.8444,-0.7635,-0.0736,9.7766,0.0081,0.0009,0.0022,0.0003,-0.0005,-0.0005,30,-42.14,-27.06,-40.94,121.19,0.43,4.47,5,23.032,,,,NaN,,,,0 / 0,110507,2018-08-11 08:40:17:445
-0.7813,-0.0802,9.8396,-0.7655,-0.0786,9.7764,-0.0003,-0.0041,-0.0108,-0.001,-0.0005,-0.0005,30,-41.96,-27.04,-41.82,121.16,0.45,4.48,5,23.326,,,,NaN,,,,0 / 0,111006,2018-08-11 08:40:17:944
-0.7849,-0.0766,9.8456,-0.7641,-0.0763,9.7765,-0.0085,-0.0051,-0.0066,0.0003,-0.0005,-0.0005,30,-41.42,-27.08,-40.35,121.81,0.45,4.47,5,25.158,,,,NaN,,,,0 / 0,111506,2018-08-11 08:40:18:444
-0.7597,-0.073,9.8516,-0.7682,-0.0717,9.7763,-0.0031,-0.005,-0.0049,0.0015,-0.0005,-0.0005,30,-41.58,-26.18,-40.63,120.23,0.42,4.49,5,24.583,,,,NaN,,,,0 / 0,112007,2018-08-11 08:40:18:945
-0.7693,-0.0682,9.8564,-0.7661,-0.0726,9.7764,-0.0036,0.0043,0.005,0.0003,-0.0005,-0.0005,30,-41.76,-26.48,-40.34,120.28,0.43,4.48,5,26.268,,,,NaN,,,,0 / 0,112507,2018-08-11 08:40:19:445
-0.7633,-0.0766,9.8504,-0.7627,-0.077,9.7766,0.004,0.0021,-0.0054,-0.001,-0.0005,-0.0005,30,-41.07,-26.77,-40.94,121.77,0.45,4.47,5,26.028,,,,NaN,,,,0 / 0,113007,2018-08-11 08:40:19:945
-0.7813,-0.0682,9.86,-0.767,-0.0753,9.7763,-0.0084,0.0075,0.0099,0.0003,-0.0005,-0.0005,30,-41.41,-26.47,-40.93,120.82,0.45,4.48,5,27.083,,,,NaN,,,,0 / 0,113507,2018-08-11 08:40:20:445
-0.7717,-0.0885,9.842,-0.7664,-0.0771,9.7764,-0.0123,-0.0083,-0.009,0.0015,-0.0005,-0.0005,30,-41.23,-26.5,-39.45,121.85,0.45,4.47,5,24.999,,,,NaN,,,,0 / 0,114008,2018-08-11 08:40:20:946
-0.7573,-0.0802,9.8468,-0.7633,-0.0784,9.7766,-0.0038,-0.0081,-0.0115,0.0003,-0.0005,-0.0005,30,-42.33,-27.66,-40.65,122.13,0.46,4.46,5,23.886,,,,NaN,,,,0 / 0,114507,2018-08-11 08:40:21:445
-0.7777,-0.0754,9.8396,-0.7677,-0.0784,9.7762,-0.0038,0.0008,-0.0073,0.0003,-0.0005,0.0007,30,-42.3,-26.77,-40.64,121.2,0.46,4.49,5,26.842,,,,NaN,,,,0 / 0,115008,2018-08-11 08:40:21:946
-0.7861,-0.0849,9.8456,-0.7659,-0.0759,9.7764,-0.0025,-0.0119,-0.0007,0.0003,-0.0005,-0.0005,30,-41.77,-26.47,-40.93,120.25,0.44,4.48,5,28.665,,,,NaN,,,,0 / 0,115507,2018-08-11 08:40:22:445
-0.7777,-0.0574,9.8504,-0.7608,-0.0699,9.7768,0.0078,-0.0038,0.0116,0.0003,-0.0005,-0.0005,30,-42.12,-26.79,-39.75,121.21,0.41,4.46,5,27.37,,,,NaN,,,,0 / 0,116007,2018-08-11 08:40:22:945
-0.7885,-0.0969,9.8097,-0.767,-0.0487,9.7765,-0.0107,-0.0121,-0.0292,-0.0034,0.0056,0.002,30,-42.48,-26.77,-40.34,121.11,0.21,4.43,5,25.083,,,,NaN,,,,0 / 0,116507,2018-08-11 08:40:23:445
-0.8172,0.006,9.8839,-0.798,-0.0422,9.774,-0.0175,0.0212,0.0308,0.0051,0.0019,0.0044,30,-41.4,-26.17,-40.93,120.64,0.27,4.65,5,25.595,,,,NaN,,,,0 / 0,117007,2018-08-11 08:40:23:945
-0.7705,0.0012,9.8468,-0.7911,-0.0576,9.7745,-0.0056,-0.0143,-0.0446,-0.0095,0.0043,0.0044,30,-41.44,-27.37,-40.95,121.61,0.27,4.6,5,29.426,,,,NaN,,,,0 / 0,117508,2018-08-11 08:40:24:446
-0.7741,-0.0586,9.8468,-0.7813,-0.0471,9.7754,-0.0049,-0.0355,-0.0187,0.0039,-0.0079,-0.0029,30,-42.12,-26.49,-39.74,120.16,0.27,4.57,5,26.102,,,,NaN,,,,0 / 0,118007,2018-08-11 08:40:24:945
-0.6891,-0.1926,9.7224,-0.7137,-0.0259,9.7806,-0.0086,-0.1215,-0.0613,0.0003,-0.0042,-0.0017,30,-41.59,-26.8,-39.46,121.16,0.06,4.17,5,31.744,,,,NaN,,,,0 / 0,118507,2018-08-11 08:40:25:445
-0.8495,-0.1483,9.7212,-0.7074,-0.0873,9.7807,0.0787,0.1271,0.061,-0.0278,0.0178,-0.0042,30,-41.6,-26.45,-41.82,120.39,0.51,4.14,5,30.114,,,,NaN,,,,0 / 0,119007,2018-08-11 08:40:25:945
-0.8052,-0.0108,9.8073,-0.7743,-0.2632,9.7725,-0.0374,0.1999,-0.0184,-0.0107,-0.0018,-0.0005,30,-41.24,-26.45,-41.82,121.45,1.53,4.53,5,31.31,,,,NaN,,,,0 / 0,119506,2018-08-11 08:40:26:444
-0.8866,-0.2692,9.8504,-0.8234,-0.276,9.7681,-0.0215,-0.0256,0.0201,0.0015,0.0056,-0.0005,30,-40.7,-25.87,-41.51,121.38,1.61,4.82,5,36.673,,,,NaN,,,,0 / 0,120006,2018-08-11 08:40:26:944
-0.7849,-0.5001,9.9832,-0.781,-0.2948,9.7711,0.0462,-0.0052,0.0936,-0.0034,-0.0067,-0.0811,30,-41.41,-26.47,-40.93,121.53,1.7,4.63,5,28.043,,,,NaN,,,,0 / 0,120507,2018-08-11 08:40:27:445
-0.7932,-0.2512,9.9306,-0.8077,-0.2941,9.7689,-0.0662,-0.0165,-0.0122,0.0247,0.008,-0.0115,30,-41.12,-28.56,-40.97,124.32,1.77,4.59,5,31.376,,,,NaN,,,,0 / 0,121007,2018-08-11 08:40:27:945
-0.8375,-0.2261,9.8636,-0.8481,-0.2391,9.767,0.0118,-0.0053,-0.0333,0.0063,0.0019,0.002,30,-40.91,-27.35,-41.84,122.13,1.41,4.97,5,26.096,,,,NaN,,,,0 / 0,121507,2018-08-11 08:40:28:445
-0.7765,-0.2871,9.8181,-0.8211,-0.2962,9.7677,0.0017,-0.0353,-0.1143,0.01,0.0031,0.0007,30,-40.22,-27.98,-40.67,123.93,1.73,4.79,5,32.898,,,,NaN,,,,0 / 0,122007,2018-08-11 08:40:28:945
-0.8208,-0.3852,9.799,-0.8095,-0.3304,9.7676,0.0054,0.1586,0.0026,-0.012,-0.0018,-0.0029,30,-41.63,-27.33,-42.42,121.96,1.93,4.74,5,38.805,,,,NaN,,,,0 / 0,122507,2018-08-11 08:40:29:445
-0.7789,-0.3541,9.8504,-0.7981,-0.2801,9.7701,0.0272,-0.1122,0.0059,-0.0071,0.0019,-0.0017,30,-41.11,-27.96,-40.96,123.26,1.54,4.69,5,30.833,,,,NaN,,,,0 / 0,123008,2018-08-11 08:40:29:946
-0.9189,-0.3948,9.7714,-0.8148,-0.3058,9.768,0.0295,0.024,-0.001,-0.0083,-0.003,-0.0029,30,-40.9,-27.06,-41.24,122.46,1.79,4.77,5,22.731,,,,NaN,,,,0 / 0,123507,2018-08-11 08:40:30:445
-0.9129,-0.4163,9.8157,-0.8306,-0.2877,9.7672,-0.0388,0.0455,-0.0432,-0.012,-0.0054,-0.0017,30,-40.18,-26.47,-41.23,122.02,1.69,4.84,5,27.078,,,,NaN,,,,0 / 0,124006,2018-08-11 08:40:30:944
-0.8674,-0.2931,9.8396,-0.8337,-0.3083,9.7663,-0.0076,-0.0173,0.0008,0.0063,0.0043,0.0032,30,-40.72,-26.76,-41.53,122.4,1.8,4.88,5,26.037,,,,NaN,,,,0 / 0,124506,2018-08-11 08:40:31:444
-0.8255,-0.2345,9.9246,-0.8445,-0.2903,9.7659,0.0161,0.0163,0.068,0.01,0.008,0.0032,30,-39.85,-27.04,-43.02,122.9,1.73,4.94,5,27.286,,,,NaN,,,,0 / 0,125007,2018-08-11 08:40:31:945
-0.8315,-0.262,9.8516,-0.8501,-0.3033,9.765,0.0178,-0.0178,0.0206,-0.0095,-0.003,0.0007,30,-39.66,-26.77,-41.54,122.88,1.71,5.02,5,24.012,,,,NaN,,,,0 / 0,125507,2018-08-11 08:40:32:445
-0.8507,-0.2895,9.8647,-0.8458,-0.2931,9.7657,0.0033,0.0071,0.0025,-0.0071,-0.003,-0.0005,30,-40.74,-27.36,-41.54,122.31,1.7,4.96,5,22.317,,,,NaN,,,,0 / 0,126007,2018-08-11 08:40:32:945
-0.8243,-0.3158,9.8408,-0.8334,-0.3205,9.7659,0.0092,0.001,0.0068,0.0003,-0.0018,-0.0005,30,-40.57,-27.68,-40.66,123.37,1.87,4.89,5,25.815,,,,NaN,,,,0 / 0,126508,2018-08-11 08:40:33:446
-0.8387,-0.2991,9.8743,-0.837,-0.3022,9.7662,0.0017,-0.0117,-0.0019,0.0027,0.0007,0.0007,30,-41.81,-27.96,-40.95,122.72,1.77,4.9,5,24.596,,,,NaN,,,,0 / 0,127008,2018-08-11 08:40:33:946
-0.8363,-0.2991,9.8671,-0.8357,-0.3048,9.7662,0.0075,0.0053,0.0011,0.0003,0.0007,-0.0005,30,-41.09,-27.37,-40.95,122.41,1.79,4.89,5,22.323,,,,NaN,,,,0 / 0,127507,2018-08-11 08:40:34:445
-0.8519,-0.3147,9.8492,-0.837,-0.3084,9.766,-0.0035,-0.0031,-0.0058,0.0003,-0.0005,-0.0005,30,-39.83,-26.77,-41.24,123.01,1.8,4.9,5,22.398,,,,NaN,,,,0 / 0,128007,2018-08-11 08:40:34:945
-0.8578,-0.323,9.8277,-0.8351,-0.3087,9.7662,0.0446,-0.0093,-0.003,0.0003,0.0019,0.0007,30,-40.73,-27.06,-41.54,122.38,1.8,4.91,5,25.551,,,,NaN,,,,0 / 0,128507,2018-08-11 08:40:35:445
-0.8554,-0.2919,9.8516,-0.8391,-0.3117,9.7657,-0.0117,0.0107,-0.0041,-0.001,-0.0018,-0.0005,30,-40.2,-27.37,-41.25,123.01,1.82,4.91,5,22.727,,,,NaN,,,,0 / 0,129007,2018-08-11 08:40:35:945
-0.8435,-0.2919,9.8671,-0.8376,-0.3127,9.7658,0.006,0.0249,0.0052,0.0003,-0.0005,0.0007,30,-40.88,-26.47,-41.23,121.51,1.85,4.91,5,21.555,,,,NaN,,,,0 / 0,129507,2018-08-11 08:40:36:445
-0.865,-0.335,9.8528,-0.8374,-0.3101,9.7659,-0.0099,0.0248,-0.0047,0.0003,0.0007,-0.0005,30,-40.59,-28.57,-40.68,124.22,1.81,4.9,5,23.408,,,,NaN,,,,0 / 0,130007,2018-08-11 08:40:36:945
-0.8602,-0.3206,9.8468,-0.8419,-0.3118,9.7655,-0.0101,-0.0057,-0.0118,0.0003,-0.0005,-0.0005,30,-40.73,-27.05,-42.13,122.39,1.82,4.92,5,26.779,,,,NaN,,,,0 / 0,130507,2018-08-11 08:40:37:445
-0.8519,-0.3134,9.8636,-0.8438,-0.309,9.7654,0.003,0.0049,0.0006,-0.001,-0.0005,-0.0005,30,-41.1,-27.98,-40.37,123.33,1.81,4.94,5,22.289,,,,NaN,,,,0 / 0,131007,2018-08-11 08:40:37:945
-0.8602,-0.3158,9.8456,-0.841,-0.3096,9.7656,-0.0081,-0.0002,-0.0068,0.0003,0.0007,0.0007,30,-40.72,-26.77,-40.94,122.41,1.81,4.92,5,24.246,,,,NaN,,,,0 / 0,131506,2018-08-11 08:40:38:444
-0.8531,-0.3314,9.8647,-0.8395,-0.3112,9.7657,-0.0078,-0.0109,0.0025,0.0015,-0.0005,-0.0005,30,-40.92,-27.65,-41.84,123.3,1.81,4.91,5,27.511,,,,NaN,,,,0 / 0,132007,2018-08-11 08:40:38:945
-0.8231,-0.3003,9.8695,-0.8433,-0.3123,9.7653,0.0237,0.0116,0.0126,0.0003,-0.0005,0.0007,30,-41.28,-27.97,-40.66,123.32,1.83,4.95,5,24.595,,,,NaN,,,,0 / 0,132507,2018-08-11 08:40:39:445
-0.8495,-0.3003,9.8492,-0.8422,-0.3091,9.7655,-0.0015,0.0069,-0.0061,0.0003,-0.0005,0.0007,30,-40.56,-27.69,-40.07,123.34,1.81,4.93,5,21.384,,,,NaN,,,,0 / 0,133008,2018-08-11 08:40:39:946
-0.8542,-0.3134,9.8504,-0.8376,-0.3113,9.7659,0.0067,0.0082,-0.0002,-0.001,-0.0005,-0.0005,30,-41.44,-27.66,-40.95,123.33,1.82,4.9,5,24.553,,,,NaN,,,,0 / 0,133507,2018-08-11 08:40:40:445
-0.8327,-0.3194,9.866,-0.8395,-0.3129,9.7656,0.0087,-0.0064,0.0042,0.0003,0.0007,-0.0005,30,-40.57,-27.65,-41.84,123.31,1.82,4.92,5,23.387,,,,NaN,,,,0 / 0,134007,2018-08-11 08:40:40:945
-0.859,-0.3147,9.8468,-0.843,-0.3132,9.7653,-0.0056,0.011,-0.008,-0.001,0.0007,-0.0005,30,-40.02,-26.74,-42.72,122.97,1.83,4.93,5,23.135,,,,NaN,,,,0 / 0,134507,2018-08-11 08:40:41:445
-0.8495,-0.3134,9.8552,-0.845,-0.3154,9.7651,-0.0041,0.0005,-0.0042,0.0003,0.0007,-0.0005,30,-40.22,-27.66,-41.85,123.91,1.84,4.95,5,22.263,,,,NaN,,,,0 / 0,135007,2018-08-11 08:40:41:945
-0.8483,-0.323,9.8552,-0.8433,-0.3141,9.7653,-0.0036,-0.0013,0.0023,0.0015,0.0007,-0.0005,30,-40.73,-27.05,-42.13,122.4,1.84,4.93,5,20.447,,,,NaN,,,,0 / 0,135507,2018-08-11 08:40:42:445
-0.8435,-0.3434,9.8277,-0.8381,-0.3153,9.7657,0.0156,-0.0071,-0.0027,-0.0022,-0.0005,-0.0017,30,-40.22,-27.64,-42.43,123.91,1.83,4.92,5,23.716,,,,NaN,,,,0 / 0,136007,2018-08-11 08:40:42:945
-0.8423,-0.2979,9.8516,-0.8366,-0.3154,9.7658,0.0288,-0.0156,0.0224,-0.0034,-0.003,-0.0029,30,-41.43,-27.07,-40.94,122.39,1.8,4.96,5,25.372,,,,NaN,,,,0 / 0,136507,2018-08-11 08:40:43:445
-0.8686,-0.317,9.8552,-0.8489,-0.3141,9.7648,-0.0112,0.0002,-0.0038,-0.001,-0.0018,-0.0005,30,-40.74,-27.67,-40.96,123.32,1.84,4.97,5,22.628,,,,NaN,,,,0 / 0,137008,2018-08-11 08:40:43:946
-0.8566,-0.3099,9.848,-0.8432,-0.3154,9.7652,-0.014,-0.0009,-0.0142,-0.001,-0.0005,-0.0017,30,-42.37,-28.84,-41.26,123.64,1.84,4.93,5,24.299,,,,NaN,,,,0 / 0,137507,2018-08-11 08:40:44:445
-0.8602,-0.3206,9.854,-0.8493,-0.3154,9.7647,-0.0031,-0.0045,-0.0027,0.0003,0.0007,-0.0005,30,-40.57,-27.65,-41.84,123.3,1.84,4.97,5,28.504,,,,NaN,,,,0 / 0,138008,2018-08-11 08:40:44:946
-0.8471,-0.3158,9.8779,-0.8436,-0.3125,9.7653,0.0047,-0.0022,0.0164,0.0003,-0.0005,-0.0005,30,-40.54,-27.09,-40.06,122.43,1.83,4.94,5,26.237,,,,NaN,,,,0 / 0,138507,2018-08-11 08:40:45:445
-0.8423,-0.3206,9.8647,-0.8464,-0.3139,9.765,0.0091,0.0069,0.0069,0.0003,0.0007,-0.0005,30,-40.76,-28.27,-40.97,123.32,1.83,4.95,5,24.071,,,,NaN,,,,0 / 0,139007,2018-08-11 08:40:45:945
-0.8483,-0.3278,9.8624,-0.8442,-0.3108,9.7653,0.0033,-0.0065,0.0011,0.0003,-0.0005,0.0007,30,-40.76,-28.58,-40.38,124.23,1.81,4.94,5,25.42,,,,NaN,,,,0 / 0,139506,2018-08-11 08:40:46:444
-0.865,-0.323,9.8528,-0.8459,-0.3166,9.765,0.0014,-0.0123,-0.0011,0.0015,-0.0005,-0.0005,30,-40.01,-26.78,-40.94,123.01,1.84,4.95,5,32.826,,,,NaN,,,,0 / 0,140007,2018-08-11 08:40:46:945
-0.8614,-0.3278,9.8624,-0.8446,-0.3139,9.7652,-0.006,-0.009,0.0022,0.0003,-0.0005,-0.0017,30,-40.03,-27.36,-41.55,122.98,1.83,4.94,5,26.936,,,,NaN,,,,0 / 0,140507,2018-08-11 08:40:47:445
-0.8483,-0.3218,9.8695,-0.8443,-0.315,9.7652,0.003,0.0045,0.0158,0.0003,-0.0005,-0.0005,30,-40.22,-27.33,-43.02,122.97,1.84,4.95,5,22.652,,,,NaN,,,,0 / 0,141007,2018-08-11 08:40:47:945
-0.8662,-0.3099,9.848,-0.8459,-0.315,9.765,0.0125,-0.005,0.0036,0.0003,-0.0005,-0.0005,30,-40.58,-27.64,-42.43,123.3,1.84,4.95,5,21.195,,,,NaN,,,,0 / 0,141507,2018-08-11 08:40:48:445
-0.8495,-0.3374,9.8671,-0.8468,-0.3157,9.7649,-0.0021,-0.0011,0.0075,0.0015,-0.0005,-0.0005,30,-41.09,-27.38,-40.36,122.44,1.85,4.96,5,22.024,,,,NaN,,,,0 / 0,142007,2018-08-11 08:40:48:945
-0.8662,-0.3242,9.8552,-0.85,-0.3156,9.7646,-0.0105,-0.0016,-0.0033,0.0003,0.0007,-0.0005,30,-40.75,-27.66,-41.55,123.3,1.84,4.98,5,21.571,,,,NaN,,,,0 / 0,142507,2018-08-11 08:40:49:445
-0.8686,-0.3254,9.8576,-0.8489,-0.3156,9.7647,-0.0104,-0.0076,0.0022,0.0003,-0.0005,-0.0005,30,-40.75,-27.66,-41.55,123.3,1.84,4.96,5,21.542,,,,NaN,,,,0 / 0,143007,2018-08-11 08:40:49:945
-0.8507,-0.3147,9.8564,-0.8458,-0.3147,9.765,0.0033,0.0031,-0.0032,0.0015,-0.0005,-0.0005,30,-40.56,-26.73,-43.01,122.37,1.84,4.95,5,23.396,,,,NaN,,,,0 / 0,143507,2018-08-11 08:40:50:445
-0.8507,-0.3194,9.8671,-0.8466,-0.3151,9.765,-0.0049,-0.0054,-0.0053,0.0003,0.0007,-0.0005,30,-41.1,-27.33,-42.72,122.37,1.84,4.95,5,22.42,,,,NaN,,,,0 / 0,144007,2018-08-11 08:40:50:945
-0.8662,-0.3194,9.8504,-0.8491,-0.3132,9.7648,-0.0016,0.0062,-0.0076,0.0003,-0.0005,-0.0017,30,-40.75,-27.66,-41.55,123.3,1.84,4.97,5,23.733,,,,NaN,,,,0 / 0,144507,2018-08-11 08:40:51:445
-0.8423,-0.3063,9.8683,-0.8455,-0.3152,9.765,0.0043,0.0099,0.0039,0.0003,-0.0005,-0.0005,30,-42.03,-29.43,-41.87,123.61,1.85,4.95,5,24.778,,,,NaN,,,,0 / 0,145007,2018-08-11 08:40:51:945
-0.8471,-0.323,9.8552,-0.8464,-0.3119,9.7651,-0.0086,-0.0104,-0.0023,0.0003,-0.0005,-0.0017,30,-40.93,-27.96,-41.26,123.31,1.82,4.95,5,22.962,,,,NaN,,,,0 / 0,145507,2018-08-11 08:40:52:445
-0.8363,-0.3182,9.8731,-0.8461,-0.3147,9.765,-0.01,-0.0002,-0.0146,0.0003,-0.0005,-0.0005,30,-40.74,-27.35,-42.13,122.39,1.84,4.95,5,22.139,,,,NaN,,,,0 / 0,146008,2018-08-11 08:40:52:946
-0.8519,-0.3123,9.8624,-0.8498,-0.3153,9.7647,0.0024,0.004,-0.0019,0.0003,-0.0005,-0.0005,30,-41.8,-27.66,-40.95,122.73,1.85,4.98,5,24.004,,,,NaN,,,,0 / 0,146507,2018-08-11 08:40:53:445
-0.8208,-0.3003,9.8683,-0.8503,-0.316,9.7646,-0.0106,0.0017,-0.0039,0.0003,0.0007,-0.0005,30,-40.73,-26.74,-42.71,122.37,1.85,4.98,5,24.193,,,,NaN,,,,0 / 0,147007,2018-08-11 08:40:53:945
-0.8662,-0.3242,9.8576,-0.8434,-0.3159,9.7652,0.0088,-0.0124,0.0045,0.0003,-0.0005,-0.0005,30,-40.17,-26.49,-40.64,122.07,1.84,4.94,5,22.864,,,,NaN,,,,0 / 0,147507,2018-08-11 08:40:54:445
-0.8614,-0.3254,9.854,-0.848,-0.3175,9.7648,-0.0046,0.0035,-0.0015,0.0003,0.0007,-0.0005,30,-40.21,-27.67,-41.26,123.93,1.86,4.96,5,23.949,,,,NaN,,,,0 / 0,148006,2018-08-11 08:40:54:944
-0.859,-0.3134,9.8396,-0.8454,-0.3177,9.765,-0.0025,-0.0006,-0.0086,-0.001,-0.0005,-0.0005,30,-40.76,-27.94,-42.14,123.31,1.85,4.95,5,22.969,,,,NaN,,,,0 / 0,148508,2018-08-11 08:40:55:446
-0.8566,-0.3242,9.8647,-0.8455,-0.3193,9.7649,0.0024,0.0006,0.0026,0.0003,0.0007,-0.0005,30,-41.11,-27.94,-42.14,123.32,1.87,4.95,5,21.909,,,,NaN,,,,0 / 0,149007,2018-08-11 08:40:55:945
-0.8638,-0.317,9.8504,-0.8489,-0.3195,9.7646,-0.0065,0.0055,-0.0088,0.0003,0.0007,-0.0005,30,-41.44,-27.37,-40.95,122.43,1.87,4.96,5,24.565,,,,NaN,,,,0 / 0,149506,2018-08-11 08:40:56:444
-0.8626,-0.3194,9.8456,-0.8495,-0.3196,9.7646,-0.0106,0.0032,-0.0073,0.0003,0.0007,-0.0005,30,-40.03,-27.04,-42.72,122.98,1.87,4.96,5,23.555,,,,NaN,,,,0 / 0,150006,2018-08-11 08:40:56:944
-0.8758,-0.335,9.8492,-0.852,-0.3196,9.7643,-0.0064,-0.0002,-0.012,0.0003,0.0007,-0.0005,30,-41.29,-27.94,-41.84,123.3,1.87,4.99,5,22.328,,,,NaN,,,,0 / 0,150507,2018-08-11 08:40:57:445
-0.871,-0.3194,9.8552,-0.8558,-0.317,9.7641,-0.0041,0.0019,-0.0024,-0.001,0.0007,-0.0005,30,-40.58,-27.95,-41.85,123.29,1.85,5,5,25.762,,,,NaN,,,,0 / 0,151006,2018-08-11 08:40:57:944
-0.8614,-0.3158,9.8588,-0.854,-0.3146,9.7643,0.0039,-0.0014,0.0072,0.0003,-0.0005,-0.0005,30,-40.2,-27.37,-41.25,122.99,1.84,5,5,24.221,,,,NaN,,,,0 / 0,151507,2018-08-11 08:40:58:445
-0.8746,-0.323,9.8408,-0.8537,-0.3185,9.7642,0.001,0.0045,-0.0099,0.0003,0.0007,-0.0005,30,-41.61,-27.38,-40.06,121.86,1.86,5,5,23.07,,,,NaN,,,,0 / 0,152006,2018-08-11 08:40:58:944
-0.877,-0.3314,9.8396,-0.8518,-0.3206,9.7643,0.0059,-0.0011,0.0031,0.0003,-0.0005,-0.0005,30,-41.1,-27.67,-40.95,123.33,1.87,4.99,5,24.356,,,,NaN,,,,0 / 0,152507,2018-08-11 08:40:59:445
-0.8698,-0.3266,9.8492,-0.8509,-0.3203,9.7644,-0.0052,-0.0035,-0.0012,0.0003,-0.0005,-0.0005,30,-40.56,-27.06,-41.83,122.4,1.87,4.98,5,21.435,,,,NaN,,,,0 / 0,153007,2018-08-11 08:40:59:945
-0.8662,-0.3194,9.854,-0.8489,-0.3186,9.7646,-0.0023,0.0081,-0.0024,0.0003,-0.0005,-0.0005,30,-40.92,-27.34,-42.43,122.4,1.86,4.97,5,21.096,,,,NaN,,,,0 / 0,153507,2018-08-11 08:41:00:445
-0.8578,-0.3254,9.8492,-0.8525,-0.3174,9.7644,-0.0035,-0.0011,-0.0025,0.0003,-0.0005,-0.0005,30,-40.18,-26.15,-42.41,122.04,1.85,4.99,5,20.88,,,,NaN,,,,0 / 0,154007,2018-08-11 08:41:00:945
-0.8459,-0.3182,9.8564,-0.8507,-0.3166,9.7645,-0.0001,0.0028,-0.0001,0.0003,0.0007,-0.0005,30,-40.39,-27.66,-41.55,123.9,1.85,4.98,5,21.622,,,,NaN,,,,0 / 0,154506,2018-08-11 08:41:01:444
-0.8483,-0.3314,9.8624,-0.8502,-0.3209,9.7645,0.0003,-0.0056,0.0042,0.0003,-0.0005,-0.0005,30,-40.74,-27.36,-41.54,122.4,1.87,4.98,5,22.923,,,,NaN,,,,0 / 0,155006,2018-08-11 08:41:01:944
-0.8554,-0.329,9.8636,-0.8483,-0.3195,9.7647,0.0069,0.0036,0.0132,0.0003,-0.0005,-0.0005,30,-40.39,-27.66,-41.55,123.91,1.87,4.98,5,22.281,,,,NaN,,,,0 / 0,155507,2018-08-11 08:41:02:445
-0.8554,-0.335,9.86,-0.8477,-0.3225,9.7646,0.0015,-0.0086,0.0023,0.0015,-0.0005,-0.0005,30,-40.37,-27.4,-39.77,123.05,1.88,4.96,5,24.921,,,,NaN,,,,0 / 0,156008,2018-08-11 08:41:02:946
-0.8459,-0.3063,9.8695,-0.8502,-0.3223,9.7644,0.002,0.0031,0.0114,0.0003,-0.0005,-0.0005,30,-41.95,-27.4,-38.88,121.89,1.89,4.98,5,25.677,,,,NaN,,,,0 / 0,156507,2018-08-11 08:41:03:445
-0.8614,-0.329,9.86,-0.8509,-0.3213,9.7644,-0.0037,-0.0035,-0.0011,0.0003,-0.0005,0.0007,30,-40.57,-27.68,-40.66,123.33,1.88,4.98,5,25.324,,,,NaN,,,,0 / 0,157007,2018-08-11 08:41:03:945
-0.8554,-0.3182,9.8516,-0.8486,-0.3218,9.7646,-0.0001,0.0052,-0.003,0.0003,0.0007,-0.0005,30,-40.93,-27.96,-41.26,123.34,1.88,4.96,5,23.805,,,,NaN,,,,0 / 0,157506,2018-08-11 08:41:04:444
-0.8566,-0.3194,9.8516,-0.8544,-0.3179,9.7642,-0.0082,-0.0124,-0.0037,0.0003,0.0007,-0.0005,30,-41.09,-27.38,-40.36,122.43,1.86,5,5,23.178,,,,NaN,,,,0 / 0,158006,2018-08-11 08:41:04:944
-0.865,-0.3218,9.8384,-0.8477,-0.3181,9.7648,-0.0054,-0.0031,0.0004,-0.001,0.0007,-0.0005,30,-41.26,-27.38,-40.06,122.44,1.86,4.96,5,24.86,,,,NaN,,,,0 / 0,158508,2018-08-11 08:41:05:446
-0.8471,-0.3314,9.8731,-0.8481,-0.3179,9.7647,-0.007,0.0022,-0.0121,-0.001,-0.0005,-0.0005,30,-40.56,-27.37,-41.25,122.42,1.86,4.95,5,24.414,,,,NaN,,,,0 / 0,159007,2018-08-11 08:41:05:945
-0.8638,-0.317,9.8408,-0.8513,-0.3208,9.7644,0.0025,0.0064,-0.0105,-0.001,-0.0005,-0.0005,30,-40.88,-26.79,-40.05,122.44,1.88,4.99,5,24.015,,,,NaN,,,,0 / 0,159507,2018-08-11 08:41:06:445
-0.8614,-0.3182,9.8516,-0.8442,-0.3233,9.7649,0.0128,-0.0101,0.0035,0.0003,-0.0005,-0.0005,30,-40.57,-27.35,-41.84,122.41,1.87,4.96,5,25.712,,,,NaN,,,,0 / 0,160008,2018-08-11 08:41:06:946
-0.8554,-0.3278,9.8719,-0.8492,-0.3205,9.7646,-0.0044,-0.0004,-0.0086,0.0003,0.0007,-0.0005,30,-40.4,-27.96,-41.55,123.91,1.87,4.97,5,25.905,,,,NaN,,,,0 / 0,160506,2018-08-11 08:41:07:444
-0.8638,-0.3182,9.8408,-0.8474,-0.3177,9.7648,-0.006,0.0055,-0.012,0.0003,-0.0005,-0.0005,30,-40.73,-27.05,-42.13,122.4,1.86,4.96,5,24.874,,,,NaN,,,,0 / 0,161006,2018-08-11 08:41:07:944
-0.8626,-0.3194,9.848,-0.85,-0.3186,9.7646,-0.0092,0.0017,0.0015,0.0003,-0.0005,-0.0005,30,-41.09,-27.37,-40.95,122.42,1.86,4.97,5,25.289,,,,NaN,,,,0 / 0,161508,2018-08-11 08:41:08:446
-0.8554,-0.3218,9.86,-0.8518,-0.3198,9.7644,0.0006,0.0003,-0.0015,0.0003,-0.0005,-0.0005,30,-40.38,-27.04,-42.72,122.97,1.87,4.99,5,23.389,,,,NaN,,,,0 / 0,162007,2018-08-11 08:41:08:945
-0.8614,-0.3398,9.8516,-0.8453,-0.3194,9.7649,0.0022,-0.0072,0.0072,0.0003,-0.0005,-0.0005,30,-40.03,-27.36,-40.07,123,1.86,4.95,5,23.585,,,,NaN,,,,0 / 0,162507,2018-08-11 08:41:09:445
-0.8662,-0.3254,9.8528,-0.8467,-0.3214,9.7647,-0.0084,0.0027,-0.0069,0.0003,-0.0005,-0.0005,30,-40.05,-27.65,-42.14,123.93,1.88,4.95,5,25.889,,,,NaN,,,,0 / 0,163007,2018-08-11 08:41:09:945
-0.8638,-0.3218,9.8707,-0.8495,-0.3171,9.7646,0.0058,-0.0002,0.0083,0.0003,-0.0005,0.0007,30,-40.91,-27.67,-40.66,123.32,1.85,4.98,5,26.007,,,,NaN,,,,0 / 0,163507,2018-08-11 08:41:10:445
-0.8531,-0.341,9.848,-0.8509,-0.3221,9.7644,-0.0006,-0.0098,-0.0094,0.0003,-0.0005,-0.0005,30,-40.41,-28.24,-42.15,123.91,1.88,4.98,5,26.968,,,,NaN,,,,0 / 0,164007,2018-08-11 08:41:10:945
-0.8399,-0.3278,9.866,-0.8504,-0.3214,9.7644,-0.0061,0.0014,0.0102,0.0003,-0.0005,-0.0005,30,-41.43,-27.07,-40.94,122.43,1.88,4.97,5,25.428,,,,NaN,,,,0 / 0,164507,2018-08-11 08:41:11:445
-0.8614,-0.3374,9.8624,-0.8447,-0.322,9.7649,-0.0154,0.0002,-0.0134,0.0003,0.0007,-0.0005,30,-40.55,-27.39,-40.07,122.46,1.88,4.94,5,22.385,,,,NaN,,,,0 / 0,165008,2018-08-11 08:41:11:946
-0.8542,-0.3147,9.8588,-0.8486,-0.3229,9.7645,-0.0043,0.0077,-0.0028,0.0003,-0.0005,-0.0005,30,-40.58,-27.64,-42.43,123.33,1.89,4.97,5,22.045,,,,NaN,,,,0 / 0,165507,2018-08-11 08:41:12:445
-0.8542,-0.3242,9.866,-0.8505,-0.3248,9.7643,-0.0013,-0.0029,0.0015,0.0003,-0.0005,-0.0005,30,-40.39,-27.97,-40.96,123.95,1.9,4.98,5,22.992,,,,NaN,,,,0 / 0,166007,2018-08-11 08:41:12:945
-0.8542,-0.3314,9.8683,-0.8491,-0.3229,9.7645,0.0003,0.0014,0.0098,0.0003,0.0007,-0.0005,30,-40.75,-27.64,-42.14,123.33,1.89,4.97,5,21.063,,,,NaN,,,,0 / 0,166507,2018-08-11 08:41:13:445
-0.8459,-0.3326,9.8624,-0.8545,-0.3218,9.7641,-0.007,0.0048,-0.0037,0.0003,-0.0005,0.0007,30,-41.09,-27.38,-40.36,122.44,1.88,5,5,23.681,,,,NaN,,,,0 / 0,167007,2018-08-11 08:41:13:945
-0.8674,-0.3338,9.8612,-0.853,-0.324,9.7641,0.0017,-0.0105,0.001,0.0003,0.0007,-0.0005,30,-41.27,-27.66,-41.25,123.33,1.89,4.99,5,22.998,,,,NaN,,,,0 / 0,167508,2018-08-11 08:41:14:446
-0.8638,-0.3134,9.8468,-0.8477,-0.3232,9.7646,0.0072,-0.0042,0.0044,0.0003,0.0007,-0.0005,30,-40.74,-27.35,-42.13,122.41,1.88,4.97,5,23.247,,,,NaN,,,,0 / 0,168007,2018-08-11 08:41:14:945
-0.859,-0.317,9.8588,-0.8507,-0.3197,9.7645,-0.0029,0.0046,0.0021,0.0003,-0.0005,-0.0005,30,-40.76,-27.94,-42.14,123.31,1.87,4.98,5,22.732,,,,NaN,,,,0 / 0,168506,2018-08-11 08:41:15:444
-0.8662,-0.3326,9.8564,-0.8526,-0.3207,9.7642,-0.0037,0.007,-0.0117,0.0003,-0.0005,-0.0005,30,-40.75,-27.66,-41.55,123.31,1.88,4.99,5,21.523,,,,NaN,,,,0 / 0,169007,2018-08-11 08:41:15:945
-0.8638,-0.3194,9.8468,-0.8489,-0.3216,9.7645,-0.0018,-0.0054,0.0027,-0.001,-0.0005,0.0007,30,-40.2,-27.06,-41.84,123,1.88,4.97,5,22.669,,,,NaN,,,,0 / 0,169507,2018-08-11 08:41:16:445
-0.865,-0.3206,9.8492,-0.8505,-0.3234,9.7643,-0.0004,-0.0007,-0.0047,0.0003,0.0007,0.0007,30,-40.37,-27.06,-41.54,123.01,1.89,4.98,5,24.742,,,,NaN,,,,0 / 0,170007,2018-08-11 08:41:16:945
-0.8507,-0.329,9.8588,-0.8492,-0.3207,9.7645,-0.0002,-0.0039,-0.0005,-0.001,0.0007,-0.0005,30,-40.57,-27.33,-43.02,122.38,1.87,4.97,5,25.937,,,,NaN,,,,0 / 0,170507,2018-08-11 08:41:17:445
-0.8674,-0.323,9.8552,-0.8506,-0.3219,9.7644,0.0002,0.0031,0.0031,-0.001,-0.0005,-0.0005,30,-40.92,-27.65,-41.84,123.31,1.88,4.98,5,23.086,,,,NaN,,,,0 / 0,171007,2018-08-11 08:41:17:945
-0.8531,-0.3362,9.8564,-0.8457,-0.3206,9.7649,0.0004,-0.0105,0.0007,0.0003,-0.0005,-0.0005,30,-40.57,-27.65,-41.84,123.32,1.87,4.95,5,23.056,,,,NaN,,,,0 / 0,171507,2018-08-11 08:41:18:445
-0.8614,-0.3314,9.854,-0.8514,-0.3236,9.7643,-0.0056,-0.0029,-0.0031,-0.001,0.0007,-0.0005,30,-40.74,-27.67,-40.96,123.34,1.89,4.98,5,24.605,,,,NaN,,,,0 / 0,172007,2018-08-11 08:41:18:945
-0.8638,-0.3182,9.8408,-0.8516,-0.323,9.7643,-0.0091,-0.0013,-0.0004,0.0003,-0.0005,-0.0005,30,-41.27,-27.68,-40.07,123.36,1.89,4.98,5,22.306,,,,NaN,,,,0 / 0,172506,2018-08-11 08:41:19:444
-0.883,-0.3302,9.8504,-0.8518,-0.3226,9.7643,-0.0212,-0.0052,-0.0067,0.0003,-0.0005,-0.0005,30,-40.9,-27.06,-41.24,122.43,1.88,4.97,5,23.871,,,,NaN,,,,0 / 0,173008,2018-08-11 08:41:19:946
-0.8638,-0.329,9.8576,-0.8515,-0.3206,9.7644,-0.011,-0.002,0.0012,0.0003,0.0007,-0.0005,30,-41.11,-27.96,-40.96,123.33,1.87,4.97,5,23.376,,,,NaN,,,,0 / 0,173507,2018-08-11 08:41:20:445
-0.859,-0.335,9.854,-0.849,-0.3197,9.7646,0.0009,-0.0011,0.0057,0.0003,-0.0005,-0.0005,30,-40.37,-27.08,-40.95,123.02,1.87,4.97,5,23.724,,,,NaN,,,,0 / 0,174007,2018-08-11 08:41:20:945
-0.8686,-0.323,9.8444,-0.8454,-0.3232,9.7648,0.0143,0.0023,0.004,0.0003,0.0007,0.0007,30,-41.98,-27.95,-41.25,122.76,1.89,4.97,5,21.907,,,,NaN,,,,0 / 0,174507,2018-08-11 08:41:21:445
-0.8758,-0.3266,9.8408,-0.8535,-0.3199,9.7642,-0.0112,-0.004,-0.0111,0.0003,-0.0005,-0.0005,30,-40.93,-28.26,-41.26,123.32,1.87,4.99,5,24.541,,,,NaN,,,,0 / 0,175006,2018-08-11 08:41:21:944
-0.8542,-0.3302,9.8588,-0.8485,-0.3253,9.7645,0.0045,0.0032,0.0027,0.0003,-0.0005,0.0007,30,-40.04,-27.34,-42.73,123,1.9,4.97,5,24.732,,,,NaN,,,,0 / 0,175506,2018-08-11 08:41:22:444
-0.8674,-0.3302,9.8492,-0.8482,-0.3256,9.7645,0.0002,0.0017,-0.002,-0.001,-0.0005,-0.0005,30,-40.2,-27.06,-41.84,123.02,1.9,4.96,5,22.109,,,,NaN,,,,0 / 0,176007,2018-08-11 08:41:22:945
-0.859,-0.3254,9.8588,-0.852,-0.3242,9.7642,0.0002,0.0038,0.0021,0.0003,0.0007,-0.0005,30,-39.86,-27.66,-41.85,123.92,1.9,4.99,5,22.936,,,,NaN,,,,0 / 0,176508,2018-08-11 08:41:23:446
-0.8698,-0.3218,9.8552,-0.8539,-0.3206,9.7641,-0.0041,0.0001,-0.0074,0.0003,0.0007,-0.0005,30,-40.23,-27.95,-41.85,123.91,1.87,4.98,5,24.558,,,,NaN,,,,0 / 0,177007,2018-08-11 08:41:23:945
-0.8758,-0.3302,9.8504,-0.8513,-0.3217,9.7643,-0.0029,0.0081,-0.0157,0.0003,0.0007,-0.0005,30,-40.21,-27.36,-41.84,123,1.89,4.98,5,23.266,,,,NaN,,,,0 / 0,177507,2018-08-11 08:41:24:445
-0.8531,-0.3374,9.8576,-0.8471,-0.3214,9.7647,0.0056,0.0041,0.0071,0.0003,-0.0005,-0.0005,30,-40.75,-27.66,-41.55,123.32,1.88,4.96,5,22.493,,,,NaN,,,,0 / 0,178006,2018-08-11 08:41:24:944
-0.8519,-0.3123,9.8636,-0.8449,-0.3232,9.7648,-0.0071,0.0003,0.0047,0.0003,-0.0005,-0.0005,30,-40.57,-27.35,-41.84,122.43,1.89,4.95,5,21.756,,,,NaN,,,,0 / 0,178506,2018-08-11 08:41:25:444
-0.8554,-0.3266,9.8719,-0.8522,-0.3195,9.7643,-0.0085,0.0079,-0.003,0.0003,-0.0005,-0.0005,30,-40.92,-27.65,-41.84,123.32,1.88,4.98,5,23.987,,,,NaN,,,,0 / 0,179007,2018-08-11 08:41:25:945
-0.8674,-0.3278,9.8492,-0.8534,-0.3206,9.7642,-0.0055,-0.0042,-0.0066,0.0003,-0.0005,-0.0005,30,-40.37,-26.75,-42.12,122.99,1.87,4.99,5,24.314,,,,NaN,,,,0 / 0,179507,2018-08-11 08:41:26:445
-0.8614,-0.3182,9.8612,-0.8497,-0.3239,9.7644,-0.0001,-0.0005,0.0077,0.0003,-0.0005,-0.0005,30,-41.26,-27.38,-40.06,122.46,1.89,4.98,5,22.776,,,,NaN,,,,0 / 0,180007,2018-08-11 08:41:26:945
-0.8674,-0.3314,9.8552,-0.8522,-0.3222,9.7642,-0.002,0.0016,0.0072,0.0003,-0.0005,-0.0005,30,-40.38,-27.36,-41.54,123,1.88,4.99,5,24.774,,,,NaN,,,,0 / 0,180506,2018-08-11 08:41:27:444
-0.8399,-0.323,9.8624,-0.852,-0.3214,9.7643,0.0148,-0.002,0.007,0.0003,-0.0005,-0.0005,30,-41.1,-27.34,-42.13,122.4,1.88,5,5,26.47,,,,NaN,,,,0 / 0,181007,2018-08-11 08:41:27:945
-0.865,-0.3362,9.8516,-0.8491,-0.323,9.7645,0.0154,0.0065,0.0032,0.0003,-0.0005,-0.0005,30,-40.9,-26.75,-41.83,122.41,1.89,4.97,5,25.496,,,,NaN,,,,0 / 0,181506,2018-08-11 08:41:28:444
-0.8782,-0.3206,9.8408,-0.852,-0.3218,9.7643,-0.0107,-0.0018,-0.0111,0.0003,-0.0005,-0.0005,30,-41.09,-27.38,-40.36,122.45,1.88,4.98,5,24.447,,,,NaN,,,,0 / 0,182007,2018-08-11 08:41:28:945
-0.8531,-0.3338,9.8576,-0.8521,-0.3212,9.7643,-0.0105,0.0048,-0.0072,-0.001,-0.0005,-0.0005,30,-40.71,-26.48,-40.93,121.5,1.88,4.97,5,24.945,,,,NaN,,,,0 / 0,182507,2018-08-11 08:41:29:445
-0.871,-0.3481,9.848,-0.8505,-0.3227,9.7644,-0.008,-0.0208,-0.003,0.0003,-0.0005,-0.0005,30,-40.91,-27.35,-41.84,122.4,1.87,4.97,5,23.411,,,,NaN,,,,0 / 0,183007,2018-08-11 08:41:29:945
-0.877,-0.3266,9.8552,-0.8524,-0.3259,9.7641,-0.0048,-0.0074,-0.0017,0.0003,-0.0005,0.0007,30,-40.91,-27.35,-41.84,122.41,1.9,4.99,5,22.566,,,,NaN,,,,0 / 0,183507,2018-08-11 08:41:30:445
-0.8519,-0.3362,9.854,-0.8561,-0.3244,9.7638,-0.0073,-0.0022,-0.0017,-0.001,-0.0005,-0.0005,30,-40.75,-27.64,-42.14,123.31,1.9,5.01,5,23.426,,,,NaN,,,,0 / 0,184006,2018-08-11 08:41:30:944
-0.8459,-0.3266,9.8588,-0.8544,-0.3256,9.7639,0.0051,0.0013,-0.0035,0.0003,0.0007,-0.0005,30,-41.8,-27.66,-40.95,122.76,1.9,5,5,22.696,,,,NaN,,,,0 / 0,184507,2018-08-11 08:41:31:445
-0.8602,-0.3218,9.8396,-0.8491,-0.325,9.7644,0.0051,0.0029,0.0051,0.0003,0.0007,-0.0005,30,-40.93,-27.95,-41.85,123.33,1.9,4.97,5,21.771,,,,NaN,,,,0 / 0,185007,2018-08-11 08:41:31:945
-0.877,-0.3182,9.848,-0.8536,-0.3209,9.7642,-0.0122,0.0037,-0.0013,-0.001,-0.0005,-0.0005,30,-40.93,-27.95,-41.85,123.31,1.88,4.99,5,23.586,,,,NaN,,,,0 / 0,185507,2018-08-11 08:41:32:445
-0.8423,-0.3302,9.8612,-0.8532,-0.3261,9.764,0.018,-0.0014,0.0056,0.0003,-0.0005,-0.0005,30,-40.56,-27.37,-41.25,122.44,1.91,4.99,5,26.724,,,,NaN,,,,0 / 0,186007,2018-08-11 08:41:32:945
-0.865,-0.3218,9.8492,-0.8507,-0.3283,9.7642,-0.0029,0.0054,0.0021,-0.001,-0.0005,-0.0005,30,-41.1,-27.67,-40.95,123.36,1.92,4.98,5,22.975,,,,NaN,,,,0 / 0,186508,2018-08-11 08:41:33:446
-0.8674,-0.3134,9.8552,-0.848,-0.3282,9.7644,-0.0001,-0.0011,0.0006,0.0003,-0.0005,-0.0005,30,-40.93,-27.95,-41.85,123.34,1.92,4.96,5,25.395,,,,NaN,,,,0 / 0,187006,2018-08-11 08:41:33:944
-0.8638,-0.323,9.854,-0.8551,-0.3236,9.7639,-0.0032,0.0029,-0.0081,-0.001,-0.0005,-0.0005,30,-40.39,-27.66,-41.55,123.91,1.89,5,5,25.325,,,,NaN,,,,0 / 0,187507,2018-08-11 08:41:34:445
-0.8722,-0.329,9.8444,-0.8531,-0.3254,9.7641,-0.0092,0.0015,-0.0003,-0.001,-0.0005,0.0007,30,-40.01,-26.79,-40.35,123.05,1.9,4.99,5,22.584,,,,NaN,,,,0 / 0,188006,2018-08-11 08:41:34:944
-0.8674,-0.3398,9.8492,-0.8554,-0.325,9.7639,-0.007,0.0013,-0.002,-0.001,0.0007,-0.0005,30,-40.74,-27.35,-42.13,122.41,1.9,5.01,5,28.462,,,,NaN,,,,0 / 0,188508,2018-08-11 08:41:35:446
-0.8471,-0.3386,9.8636,-0.8543,-0.3253,9.7639,0.0039,-0.008,0.003,-0.001,-0.0005,-0.0005,30,-40.37,-27.08,-40.95,123.02,1.89,5,5,27.91,,,,NaN,,,,0 / 0,189007,2018-08-11 08:41:35:945
-0.8411,-0.3087,9.8695,-0.849,-0.3256,9.7644,0.0085,-0.003,0.0045,0.0003,0.0007,-0.0005,30,-39.68,-27.34,-42.73,123,1.9,4.97,5,25.541,,,,NaN,,,,0 / 0,189506,2018-08-11 08:41:36:444
-0.8507,-0.3314,9.866,-0.8532,-0.3226,9.7641,-0.0072,0.0028,-0.0027,0.0003,0.0007,-0.0005,30,-41.07,-27.09,-39.76,122.45,1.89,4.98,5,23.586,,,,NaN,,,,0 / 0,190007,2018-08-11 08:41:36:945
-0.8734,-0.3326,9.848,-0.8506,-0.327,9.7642,0.0019,-0.0048,0.0044,0.0003,-0.0005,-0.0005,30,-40.7,-26.18,-40.93,121.52,1.91,4.98,5,23.228,,,,NaN,,,,0 / 0,190507,2018-08-11 08:41:37:445
-0.8674,-0.335,9.8576,-0.8566,-0.324,9.7638,-0.0002,0.0017,-0.001,0.0003,0.0007,-0.0005,30,-41.47,-28.56,-40.97,124.22,1.9,5.01,5,26.116,,,,NaN,,,,0 / 0,191006,2018-08-11 08:41:37:944
-0.8746,-0.329,9.8432,-0.8546,-0.3229,9.764,-0.0049,0.0014,-0.0029,0.0003,-0.0018,-0.0005,30,-40.57,-27.99,-40.08,123.35,1.89,5,5,24.434,,,,NaN,,,,0 / 0,191506,2018-08-11 08:41:38:444
-0.865,-0.3302,9.8564,-0.8532,-0.3277,9.764,-0.0011,0.0011,0.0025,0.0003,-0.0005,-0.0005,30,-40.93,-27.96,-41.26,123.35,1.92,4.99,5,24.204,,,,NaN,,,,0 / 0,192008,2018-08-11 08:41:38:946
-0.8602,-0.3302,9.8492,-0.8538,-0.3253,9.764,0.0017,-0.0047,-0.0026,-0.001,-0.0005,-0.0005,30,-41.62,-27.36,-41.24,121.85,1.9,5,5,21.296,,,,NaN,,,,0 / 0,192507,2018-08-11 08:41:39:445
-0.8746,-0.329,9.8504,-0.8478,-0.3255,9.7645,0.0072,-0.0077,0.0005,0.0003,-0.0005,-0.0005,30,-40.9,-27.06,-41.24,122.45,1.9,4.96,5,24.969,,,,NaN,,,,0 / 0,193008,2018-08-11 08:41:39:946
-0.8686,-0.323,9.8468,-0.851,-0.3244,9.7643,-0.0065,0.0024,-0.0077,0.0003,0.0007,-0.0005,30,-40.72,-26.76,-41.53,122.42,1.9,4.97,5,23.047,,,,NaN,,,,0 / 0,193506,2018-08-11 08:41:40:444
-0.8698,-0.3194,9.8492,-0.8495,-0.3259,9.7643,-0.0094,0.0082,-0.0084,0.0003,0.0007,-0.0005,30,-40.9,-26.75,-41.83,122.43,1.91,4.96,5,24.778,,,,NaN,,,,0 / 0,194007,2018-08-11 08:41:40:945
-0.8483,-0.3374,9.8779,-0.8482,-0.3245,9.7645,0.0065,-0.0081,0.0165,-0.001,-0.0005,-0.0005,30,-40.74,-27.35,-42.13,122.42,1.9,4.96,5,23.807,,,,NaN,,,,0 / 0,194507,2018-08-11 08:41:41:445
-0.8459,-0.3314,9.8612,-0.8536,-0.326,9.764,-0.0081,-0.0029,-0.0067,-0.001,0.0007,-0.0005,30,-41.1,-27.67,-40.95,123.34,1.9,5,5,23.681,,,,NaN,,,,0 / 0,195007,2018-08-11 08:41:41:945
-0.8495,-0.3266,9.8576,-0.8503,-0.3253,9.7643,0.0029,0.0028,0.0008,-0.001,0.0007,-0.0005,30,-39.64,-26.5,-40.35,122.12,1.9,4.98,5,23.327,,,,NaN,,,,0 / 0,195507,2018-08-11 08:41:42:445
-0.8662,-0.317,9.8396,-0.848,-0.3238,9.7645,0.0023,0.0029,-0.0023,-0.001,-0.0005,-0.0005,30,-40.04,-27.34,-42.73,122.99,1.89,4.96,5,23.268,,,,NaN,,,,0 / 0,196007,2018-08-11 08:41:42:945
-0.8483,-0.3362,9.8719,-0.8527,-0.3292,9.764,0.0125,-0.0036,0.0118,-0.001,-0.0005,0.0007,30,-41.09,-27.06,-41.53,122.42,1.92,5,5,27.575,,,,NaN,,,,0 / 0,196507,2018-08-11 08:41:43:445
-0.8722,-0.3314,9.8612,-0.856,-0.3285,9.7637,-0.012,0.0018,-0.0036,-0.001,0.0007,-0.0005,30,-40.9,-27.05,-41.83,122.42,1.92,5,5,25.904,,,,NaN,,,,0 / 0,197008,2018-08-11 08:41:43:946
-0.8662,-0.3242,9.8576,-0.8529,-0.3254,9.7641,-0.0079,0.0023,-0.0028,0.0003,-0.0005,-0.0005,30,-40.38,-27.35,-42.13,123.01,1.9,4.99,5,23.828,,,,NaN,,,,0 / 0,197506,2018-08-11 08:41:44:444
-0.8303,-0.3314,9.8612,-0.8521,-0.3279,9.7641,-0.0086,-0.0007,0.0013,0.0003,0.0007,-0.0005,30,-40.74,-27.36,-41.54,122.43,1.92,4.97,5,23.647,,,,NaN,,,,0 / 0,198007,2018-08-11 08:41:44:945
-0.8626,-0.3314,9.8695,-0.8504,-0.3283,9.7642,-0.005,0.002,0.005,-0.001,-0.0005,-0.0005,30,-41.81,-27.96,-40.95,122.78,1.92,4.98,5,22.702,,,,NaN,,,,0 / 0,198507,2018-08-11 08:41:45:445
-0.8626,-0.3254,9.8779,-0.8476,-0.3247,9.7646,-0.0041,0.0052,-0.0053,-0.001,0.0007,-0.0017,30,-40.73,-27.06,-41.54,122.43,1.9,4.96,5,21.427,,,,NaN,,,,0 / 0,199007,2018-08-11 08:41:45:945
-0.8554,-0.3338,9.8552,-0.8475,-0.3268,9.7645,0.0071,-0.0046,0.0012,0.0003,-0.0005,0.0007,30,-40.93,-27.96,-41.26,123.36,1.91,4.96,5,21.3,,,,NaN,,,,0 / 0,199507,2018-08-11 08:41:46:445
-0.8507,-0.3302,9.8624,-0.8545,-0.3239,9.764,0.0132,-0.004,0.003,0.0003,-0.0005,-0.0005,30,-40.57,-27.65,-41.84,123.31,1.89,5.01,5,23.236,,,,NaN,,,,0 / 0,200007,2018-08-11 08:41:46:945
-0.8554,-0.3278,9.8636,-0.8513,-0.325,9.7642,-0.0125,0.0016,-0.0051,0.0003,-0.0005,-0.0005,30,-40.57,-27.35,-41.84,122.42,1.9,4.98,5,26.596,,,,NaN,,,,0 / 0,200506,2018-08-11 08:41:47:444
-0.8542,-0.323,9.8552,-0.8539,-0.3248,9.764,-0.0014,0.0031,-0.0018,0.0003,-0.0005,0.0007,30,-40.57,-27.99,-40.08,123.36,1.9,5,5,25.516,,,,NaN,,,,0 / 0,201007,2018-08-11 08:41:47:945
-0.8495,-0.3111,9.8624,-0.8537,-0.3236,9.7641,0.0014,-0.0018,0.0032,0.0003,0.0007,-0.0005,30,-40.76,-27.94,-42.14,123.31,1.89,5,5,23.68,,,,NaN,,,,0 / 0,201507,2018-08-11 08:41:48:445
-0.8554,-0.335,9.8576,-0.8538,-0.325,9.764,0.0057,-0.0049,0.0064,0.0003,-0.0005,-0.0005,30,-41.27,-27.66,-41.25,123.34,1.9,5,5,24.616,,,,NaN,,,,0 / 0,202007,2018-08-11 08:41:48:945
-0.8542,-0.3147,9.8647,-0.8488,-0.3263,9.7644,0.0033,-0.0005,0.0057,0.0003,-0.0005,-0.0005,30,-41.29,-28.25,-41.26,123.35,1.91,4.98,5,28.604,,,,NaN,,,,0 / 0,202507,2018-08-11 08:41:49:445
-0.871,-0.3218,9.8647,-0.8513,-0.3239,9.7643,-0.0113,0.0052,0.0044,0.0003,-0.0005,-0.0005,30,-41.09,-27.05,-42.12,122.42,1.9,4.98,5,25.411,,,,NaN,,,,0 / 0,203007,2018-08-11 08:41:49:945
-0.8554,-0.3338,9.8612,-0.8508,-0.3268,9.7642,-0.0013,0.0041,-0.005,0.0003,-0.0005,-0.0005,30,-41.09,-27.38,-40.36,122.47,1.91,4.98,5,22.423,,,,NaN,,,,0 / 0,203508,2018-08-11 08:41:50:446
-0.8806,-0.3326,9.8468,-0.8482,-0.3266,9.7644,-0.008,0.0023,0.0018,0.0003,-0.0005,-0.0005,30,-40.73,-27.05,-42.13,122.43,1.91,4.96,5,24.279,,,,NaN,,,,0 / 0,204007,2018-08-11 08:41:50:945
-0.8722,-0.3266,9.8504,-0.8512,-0.3263,9.7642,-0.0094,0.002,-0.0057,0.0003,-0.0005,-0.0005,30,-41.09,-27.06,-41.53,122.42,1.91,4.98,5,26.797,,,,NaN,,,,0 / 0,204508,2018-08-11 08:41:51:446
-0.8566,-0.3302,9.854,-0.849,-0.3242,9.7645,0.003,0.0004,0.0033,0.0003,-0.0005,-0.0005,30,-39.51,-27.66,-41.85,123.93,1.9,4.97,5,22.626,,,,NaN,,,,0 / 0,205007,2018-08-11 08:41:51:945
-0.8387,-0.3326,9.8612,-0.8499,-0.3247,9.7644,0.0073,0.0092,-0.0054,0.0003,-0.0005,-0.0005,30,-40.75,-27.97,-40.96,123.35,1.9,4.98,5,21.451,,,,NaN,,,,0 / 0,205507,2018-08-11 08:41:52:445
-0.8483,-0.3254,9.8576,-0.8496,-0.3253,9.7644,0.0109,0.0038,0.0053,0.0003,-0.0005,-0.0005,30,-40.59,-27.91,-43.62,123.28,1.91,4.99,5,26.486,,,,NaN,,,,0 / 0,206007,2018-08-11 08:41:52:945
-0.8674,-0.3134,9.8552,-0.8539,-0.3237,9.764,-0.0076,0.0055,0.0036,-0.001,-0.0005,0.0007,30,-40.93,-27.64,-42.43,123.32,1.89,4.99,5,23.573,,,,NaN,,,,0 / 0,206507,2018-08-11 08:41:53:445
-0.8483,-0.3481,9.8588,-0.8511,-0.326,9.7642,0.0133,-0.0001,-0.0029,-0.001,-0.0005,-0.0005,30,-41.11,-27.94,-42.14,123.32,1.9,4.99,5,21.252,,,,NaN,,,,0 / 0,207007,2018-08-11 08:41:53:945
-0.8698,-0.3254,9.8552,-0.8518,-0.3271,9.7641,0.0034,-0.0073,0.0009,0.0003,0.0007,-0.0005,30,-40.73,-27.06,-41.54,122.42,1.91,4.99,5,25.369,,,,NaN,,,,0 / 0,207507,2018-08-11 08:41:54:445
-0.8399,-0.3039,9.866,-0.8482,-0.3231,9.7646,0.0068,0.0113,-0.0025,0.0003,-0.0005,-0.0005,30,-41.28,-27.96,-41.25,123.35,1.9,4.97,5,26.197,,,,NaN,,,,0 / 0,208007,2018-08-11 08:41:54:945
-0.8471,-0.335,9.8588,-0.8485,-0.3203,9.7646,0.0071,0.0105,0.0054,-0.001,0.0007,-0.0005,30,-41.1,-27.67,-40.95,123.34,1.87,4.97,5,24.927,,,,NaN,,,,0 / 0,208507,2018-08-11 08:41:55:445
-0.8351,-0.335,9.8683,-0.854,-0.3253,9.764,-0.0004,-0.0055,0.0038,0.0003,-0.0005,-0.0005,30,-41.09,-27.36,-41.54,122.41,1.89,5,5,26.737,,,,NaN,,,,0 / 0,209007,2018-08-11 08:41:55:945
-0.8542,-0.3338,9.86,-0.8526,-0.3259,9.7641,-0.0048,0.006,-0.0046,0.0003,-0.0005,0.0007,30,-41.28,-27.97,-40.66,123.35,1.9,4.99,5,22.184,,,,NaN,,,,0 / 0,209507,2018-08-11 08:41:56:445
-0.8542,-0.323,9.8755,-0.8467,-0.3296,9.7645,0.0064,-0.0003,0.0033,-0.001,-0.0005,-0.0005,30,-41.1,-27.67,-40.95,123.37,1.92,4.96,5,22.965,,,,NaN,,,,0 / 0,210008,2018-08-11 08:41:56:946
-0.8638,-0.317,9.8396,-0.8447,-0.3221,9.7649,-0.0056,-0.0048,0.0003,0.0003,-0.0005,0.0007,30,-40.75,-27.66,-41.55,123.33,1.88,4.94,5,24.071,,,,NaN,,,,0 / 0,210507,2018-08-11 08:41:57:445
-0.8531,-0.335,9.8576,-0.8484,-0.3272,9.7644,0.0003,-0.0013,-0.0066,0.0003,-0.0005,-0.0005,30,-40.72,-26.76,-41.53,122.43,1.91,4.97,5,24.56,,,,NaN,,,,0 / 0,211006,2018-08-11 08:41:57:944
-0.871,-0.3182,9.8456,-0.8502,-0.3247,9.7643,-0.0108,0.0105,-0.0153,0.0003,-0.0005,-0.0005,30,-40.74,-27.67,-40.96,123.35,1.91,4.97,5,21.873,,,,NaN,,,,0 / 0,211507,2018-08-11 08:41:58:445
-0.8554,-0.317,9.8624,-0.8569,-0.3282,9.7636,-0.0089,-0.0068,-0.0032,0.0003,-0.0005,-0.0005,30,-40.01,-26.78,-40.94,123.03,1.92,5.02,5,22.495,,,,NaN,,,,0 / 0,212006,2018-08-11 08:41:58:944
-0.8662,-0.3278,9.854,-0.8484,-0.325,9.7645,-0.0102,0.0023,-0.002,0.0003,-0.0005,-0.0005,30,-40.18,-26.78,-40.65,123.04,1.9,4.96,5,21.732,,,,NaN,,,,0 / 0,212508,2018-08-11 08:41:59:446
-0.8722,-0.323,9.8456,-0.8509,-0.3234,9.7643,-0.0083,0.0021,-0.0005,0.0003,-0.0005,-0.0005,30,-40.75,-27.66,-41.55,123.32,1.89,4.98,5,24.277,,,,NaN,,,,0 / 0,213007,2018-08-11 08:41:59:945
-0.8758,-0.329,9.854,-0.8506,-0.328,9.7642,0.003,-0.0119,-0.001,-0.001,-0.0005,-0.0005,30,-41.28,-27.65,-41.84,123.33,1.91,4.98,5,23.792,,,,NaN,,,,0 / 0,213507,2018-08-11 08:42:00:445
-0.865,-0.3218,9.8384,-0.8547,-0.3294,9.7638,-0.0116,0.0015,-0.0079,0.0003,-0.0005,-0.0005,30,-40.22,-27.66,-41.85,123.93,1.93,5,5,22.556,,,,NaN,,,,0 / 0,214008,2018-08-11 08:42:00:946
-0.8495,-0.3194,9.8683,-0.8506,-0.3279,9.7642,-0.0055,0.0084,0.0048,0.0003,-0.0005,-0.0005,30,-41.47,-28.55,-41.56,124.23,1.92,4.98,5,23.947,,,,NaN,,,,0 / 0,214507,2018-08-11 08:42:01:445
-0.8722,-0.3218,9.8432,-0.8475,-0.3251,9.7646,0.0017,-0.0022,0.0036,-0.001,-0.0005,-0.0005,30,-40.74,-27.35,-42.13,122.42,1.89,4.96,5,24.227,,,,NaN,,,,0 / 0,215006,2018-08-11 08:42:01:944
-0.8578,-0.3147,9.8552,-0.8496,-0.3245,9.7644,-0.0013,0.0116,-0.0059,0.0003,-0.0005,-0.0005,30,-40.75,-27.64,-42.14,123.33,1.9,4.97,5,22.839,,,,NaN,,,,0 / 0,215507,2018-08-11 08:42:02:445
-0.8459,-0.3374,9.8695,-0.8453,-0.3283,9.7646,-0.0009,-0.0101,-0.0019,0.0003,-0.0005,-0.0005,30,-40.93,-27.96,-41.26,123.37,1.91,4.95,5,22.252,,,,NaN,,,,0 / 0,216007,2018-08-11 08:42:02:945
-0.8578,-0.3254,9.8588,-0.8466,-0.328,9.7645,0.0026,-0.0004,0.0018,0.0003,0.0007,-0.0005,30,-40.23,-27.95,-41.85,123.95,1.92,4.96,5,21.146,,,,NaN,,,,0 / 0,216507,2018-08-11 08:42:03:445
-0.8686,-0.3194,9.8492,-0.8529,-0.3279,9.764,-0.0059,0.0002,-0.0019,0.0003,-0.0005,-0.0005,30,-40.21,-27.68,-40.66,123.96,1.91,4.99,5,21.682,,,,NaN,,,,0 / 0,217007,2018-08-11 08:42:03:945
-0.8626,-0.323,9.8492,-0.855,-0.3244,9.7639,-0.0006,0.004,-0.009,0.0003,0.0007,0.0007,30,-40.38,-27.36,-41.54,123,1.9,5,5,23.637,,,,NaN,,,,0 / 0,217507,2018-08-11 08:42:04:445
-0.8375,-0.335,9.8647,-0.851,-0.3289,9.7641,0.0012,-0.0131,-0.0028,0.0003,0.0007,-0.0005,30,-40.75,-27.66,-41.55,123.33,1.91,4.98,5,22.268,,,,NaN,,,,0 / 0,218007,2018-08-11 08:42:04:945
-0.8519,-0.323,9.8719,-0.8517,-0.3261,9.7642,0.0026,-0.0038,-0.0013,0.0003,-0.0005,-0.0005,30,-40.92,-27.65,-41.84,123.33,1.91,4.98,5,22.007,,,,NaN,,,,0 / 0,218507,2018-08-11 08:42:05:445
-0.8554,-0.3254,9.8647,-0.8447,-0.3265,9.7647,0.0039,0.0009,0.001,0.0003,0.0007,-0.0005,30,-39.66,-26.45,-42.71,122.08,1.91,4.95,5,20.24,,,,NaN,,,,0 / 0,219007,2018-08-11 08:42:05:945
-0.8638,-0.3158,9.842,-0.8485,-0.3279,9.7644,-0.0084,0.0097,-0.0034,-0.001,0.0007,-0.0005,30,-41.11,-28.26,-40.97,123.36,1.92,4.97,5,20.904,,,,NaN,,,,0 / 0,219507,2018-08-11 08:42:06:445
-0.8471,-0.3493,9.8671,-0.8522,-0.3275,9.7641,0.0038,0.0069,0.0046,-0.001,0.0007,-0.0005,30,-40.37,-26.75,-42.12,123.02,1.91,4.99,5,29.51,,,,NaN,,,,0 / 0,220008,2018-08-11 08:42:06:946
-0.8566,-0.341,9.8552,-0.8579,-0.3291,9.7635,-0.0092,0.0012,-0.0033,-0.001,0.0007,-0.0005,30,-41.28,-27.96,-41.25,123.35,1.92,5,5,32.198,,,,NaN,,,,0 / 0,220506,2018-08-11 08:42:07:444
-0.865,-0.317,9.848,-0.8574,-0.3302,9.7635,0.0104,0.0004,0.0067,0.0003,-0.0005,-0.0005,30,-40.55,-27.39,-40.07,122.46,1.93,5.03,5,23.888,,,,NaN,,,,0 / 0,221007,2018-08-11 08:42:07:945
-0.8674,-0.3242,9.8456,-0.8574,-0.3282,9.7636,0.0115,0,0.0093,0.0003,0.0007,-0.0005,30,-39.87,-27.63,-43.03,123.89,1.92,5.03,5,24.525,,,,NaN,,,,0 / 0,221507,2018-08-11 08:42:08:445
-0.8507,-0.3338,9.8647,-0.853,-0.3265,9.764,0.0086,-0.0037,0.0054,0.0003,0.0007,-0.0005,30,-40.9,-27.06,-41.24,122.43,1.91,5,5,24.953,,,,NaN,,,,0 / 0,222007,2018-08-11 08:42:08:945
-0.8662,-0.3242,9.8576,-0.8519,-0.3273,9.7641,0.0013,-0.0069,-0.0016,0.0003,-0.0005,-0.0005,30,-40.2,-27.06,-41.84,123.01,1.91,4.99,5,31.237,,,,NaN,,,,0 / 0,222507,2018-08-11 08:42:09:445
-0.8578,-0.3481,9.8552,-0.8574,-0.327,9.7636,0.0017,-0.0008,0.0037,-0.001,0.0007,-0.0005,30,-40.37,-27.08,-40.95,123.02,1.91,5.02,5,28.803,,,,NaN,,,,0 / 0,223008,2018-08-11 08:42:09:946
-0.871,-0.323,9.8516,-0.8604,-0.3276,9.7633,-0.0029,0.0065,-0.0031,0.0003,-0.0005,0.0007,30,-40.73,-27.38,-40.36,122.45,1.92,5.04,5,22.977,,,,NaN,,,,0 / 0,223507,2018-08-11 08:42:10:445
-0.8662,-0.323,9.8588,-0.8537,-0.3263,9.764,0.0232,-0.0016,0.0099,-0.001,0.0007,-0.0005,30,-40.72,-26.76,-41.53,122.41,1.91,5,5,26.248,,,,NaN,,,,0 / 0,224007,2018-08-11 08:42:10:945
-0.877,-0.3314,9.8528,-0.8546,-0.3267,9.7639,0.0061,0.0065,0.0065,0.0003,0.0007,-0.0005,30,-40.23,-28.26,-41.27,123.95,1.91,5.01,5,24.985,,,,NaN,,,,0 / 0,224507,2018-08-11 08:42:11:445
-0.8447,-0.329,9.8612,-0.8485,-0.3226,9.7646,-0.0037,-0.0108,0.007,-0.001,0.0007,-0.0005,30,-40.21,-27.36,-41.84,123,1.87,4.96,5,31.693,,,,NaN,,,,0 / 0,225007,2018-08-11 08:42:11:945
-0.8722,-0.329,9.8528,-0.852,-0.3286,9.764,-0.0041,-0.0001,0.0027,-0.001,-0.0005,-0.0005,30,-40.01,-27.1,-39.77,123.06,1.92,4.99,5,22.569,,,,NaN,,,,0 / 0,225506,2018-08-11 08:42:12:444
-0.859,-0.323,9.8636,-0.8485,-0.3281,9.7644,0.0058,0.0036,-0.0053,0.0003,0.0007,-0.0005,30,-40.74,-27.99,-39.78,123.39,1.92,4.97,5,20.429,,,,NaN,,,,0 / 0,226006,2018-08-11 08:42:12:944
-0.8626,-0.3266,9.8695,-0.849,-0.3271,9.7644,-0.0049,-0.007,-0.0061,0.0003,-0.0005,-0.0005,30,-41.61,-27.07,-40.64,121.87,1.91,4.97,5,21.293,,,,NaN,,,,0 / 0,226507,2018-08-11 08:42:13:445
-0.8519,-0.3194,9.8432,-0.8474,-0.3266,9.7645,-0.0005,0.0007,-0.0076,0.0003,-0.0005,-0.0005,30,-41.29,-28.27,-40.67,123.36,1.91,4.96,5,26.588,,,,NaN,,,,0 / 0,227007,2018-08-11 08:42:13:945
-0.8758,-0.3314,9.8528,-0.8546,-0.3281,9.7638,-0.0019,-0.0044,-0.0012,0.0003,0.0007,-0.0017,30,-40.72,-27.4,-39.77,122.46,1.92,5,5,22.48,,,,NaN,,,,0 / 0,227506,2018-08-11 08:42:14:444
-0.8483,-0.341,9.8564,-0.8461,-0.3283,9.7646,0.0034,-0.0056,-0.0055,0.0003,-0.0005,-0.0005,30,-40.37,-27.06,-41.54,123.03,1.91,4.96,5,22.267,,,,NaN,,,,0 / 0,228008,2018-08-11 08:42:14:946
-0.8375,-0.329,9.8695,-0.8496,-0.3209,9.7645,0.019,-0.0046,0.012,0.0003,-0.0005,-0.0005,30,-40.93,-28.27,-40.67,123.33,1.87,4.99,5,22.209,,,,NaN,,,,0 / 0,228507,2018-08-11 08:42:15:445
-0.8507,-0.3434,9.8576,-0.8499,-0.3207,9.7645,0.011,0.0059,0.0085,0.0003,-0.0005,-0.0005,30,-40.75,-27.97,-40.96,123.33,1.88,4.98,5,24.703,,,,NaN,,,,0 / 0,229007,2018-08-11 08:42:15:945
-0.8507,-0.3374,9.8683,-0.8529,-0.3233,9.7641,-0.0005,0.0053,-0.0048,0.0003,0.0007,-0.0005,30,-39.86,-27.65,-42.44,123.92,1.89,4.99,5,26.899,,,,NaN,,,,0 / 0,229507,2018-08-11 08:42:16:445
-0.8734,-0.3326,9.8564,-0.8571,-0.3281,9.7636,-0.007,-0.0026,0.0018,-0.001,0.0007,-0.0005,30,-41.46,-27.94,-42.14,123.32,1.91,5.01,5,25.611,,,,NaN,,,,0 / 0,230007,2018-08-11 08:42:16:945
-0.8746,-0.335,9.8492,-0.8501,-0.3285,9.7642,0.0043,-0.0112,0.0033,-0.001,-0.0005,-0.0017,30,-40.22,-27.66,-41.85,123.93,1.91,4.98,5,21.987,,,,NaN,,,,0 / 0,230508,2018-08-11 08:42:17:446
-0.8614,-0.3206,9.8504,-0.8511,-0.3281,9.7641,0.002,0.0032,0.0075,0.0003,-0.0005,-0.0005,30,-41.25,-27.09,-40.06,122.47,1.92,4.98,5,30.115,,,,NaN,,,,0 / 0,231007,2018-08-11 08:42:17:945
-0.859,-0.335,9.8815,-0.8489,-0.3236,9.7645,0.0056,-0.0046,0.0079,0.0003,-0.0005,-0.0005,30,-39.83,-26.77,-41.24,123.03,1.89,4.97,5,28.472,,,,NaN,,,,0 / 0,231507,2018-08-11 08:42:18:445
-0.8507,-0.3362,9.8683,-0.8508,-0.3271,9.7642,-0.0034,-0.0057,0.0038,0.0003,-0.0005,0.0007,30,-40.21,-27.36,-41.84,123.02,1.91,4.98,5,25.682,,,,NaN,,,,0 / 0,232007,2018-08-11 08:42:18:945
-0.8602,-0.3278,9.854,-0.8452,-0.325,9.7648,0.0149,-0.0009,0.0025,0.0003,-0.0005,-0.0005,30,-40.9,-27.05,-41.83,122.42,1.9,4.97,5,24.228,,,,NaN,,,,0 / 0,232507,2018-08-11 08:42:19:445
-0.8495,-0.3278,9.8624,-0.8512,-0.3257,9.7642,-0.0066,0.0033,0.005,0.0003,-0.0005,-0.0005,30,-39.84,-27.06,-41.84,123.01,1.9,4.98,5,23.993,,,,NaN,,,,0 / 0,233007,2018-08-11 08:42:19:945
-0.8327,-0.3398,9.866,-0.85,-0.3288,9.7642,0.0021,-0.0011,-0.0045,0.0003,-0.0005,-0.0005,30,-41.28,-27.65,-41.84,123.34,1.92,4.98,5,21.872,,,,NaN,,,,0 / 0,233506,2018-08-11 08:42:20:444
-0.8662,-0.3266,9.854,-0.8493,-0.3277,9.7643,-0.0072,0.0026,-0.0081,-0.001,0.0007,-0.0005,30,-40.72,-27.08,-40.35,122.47,1.91,4.96,5,24.212,,,,NaN,,,,0 / 0,234006,2018-08-11 08:42:20:944
-0.8614,-0.3374,9.86,-0.8519,-0.3309,9.764,-0.004,-0.0021,0.0017,0.0003,-0.0005,-0.0005,30,-39.84,-27.06,-41.84,123.03,1.93,4.98,5,26.747,,,,NaN,,,,0 / 0,234508,2018-08-11 08:42:21:446
-0.8483,-0.3326,9.8612,-0.8536,-0.3297,9.7639,0.0056,-0.0027,0.0039,-0.001,-0.0005,-0.0005,30,-41.28,-27.96,-41.25,123.35,1.92,5,5,24.134,,,,NaN,,,,0 / 0,235007,2018-08-11 08:42:21:945
-0.8447,-0.329,9.8612,-0.855,-0.3305,9.7637,0.0033,-0.0014,0.0046,0.0003,-0.0005,0.0007,30,-40.91,-27.35,-41.84,122.43,1.93,5,5,22.98,,,,NaN,,,,0 / 0,235507,2018-08-11 08:42:22:445
-0.8507,-0.3314,9.8683,-0.8489,-0.3263,9.7644,-0.0013,-0.0032,-0.0015,-0.001,-0.0005,-0.0005,30,-41.98,-27.96,-40.66,122.77,1.9,4.97,5,23.615,,,,NaN,,,,0 / 0,236006,2018-08-11 08:42:22:944
-0.8542,-0.3182,9.8636,-0.8532,-0.3262,9.764,0.0132,0.0008,0.0045,0.0003,-0.0005,-0.0005,30,-40.54,-27.09,-40.06,122.45,1.91,5.01,5,22.066,,,,NaN,,,,0 / 0,236507,2018-08-11 08:42:23:445
-0.8662,-0.3194,9.8372,-0.8515,-0.3278,9.7641,-0.0029,0.0026,-0.0001,-0.001,-0.0005,-0.0005,30,-41.1,-27.67,-40.95,123.35,1.92,4.98,5,21.058,,,,NaN,,,,0 / 0,237008,2018-08-11 08:42:23:946
-0.8566,-0.3134,9.8576,-0.8567,-0.3251,9.7637,-0.0057,-0.0006,-0.0046,-0.001,-0.0005,-0.0005,30,-40.22,-27.66,-41.85,123.91,1.9,5.01,5,23.184,,,,NaN,,,,0 / 0,237507,2018-08-11 08:42:24:445
-0.8698,-0.3278,9.8444,-0.8547,-0.3285,9.7638,-0.0063,0.0014,-0.0078,-0.001,0.0007,-0.0005,30,-41.07,-26.78,-40.35,122.46,1.92,5,5,22.968,,,,NaN,,,,0 / 0,238007,2018-08-11 08:42:24:945
-0.8722,-0.3422,9.854,-0.8513,-0.3297,9.7641,0.0043,0.0006,0.0007,0.0015,-0.0005,-0.0005,30,-41.63,-27.66,-41.25,122.78,1.93,4.98,5,24.194,,,,NaN,,,,0 / 0,238507,2018-08-11 08:42:25:445
-0.8662,-0.3266,9.8588,-0.8521,-0.3253,9.7641,-0.0058,0.0021,-0.0011,0.0003,-0.0005,-0.0005,30,-39.68,-27.35,-42.14,123.01,1.9,4.98,5,23.628,,,,NaN,,,,0 / 0,239007,2018-08-11 08:42:25:945
-0.8602,-0.3326,9.8636,-0.8522,-0.3268,9.7641,0.0062,-0.0043,0.0008,0.0003,0.0007,-0.0005,30,-41.27,-27.67,-40.66,123.35,1.91,4.99,5,22.379,,,,NaN,,,,0 / 0,239507,2018-08-11 08:42:26:445
-0.8602,-0.3266,9.8695,-0.8448,-0.3258,9.7648,0.0084,-0.0007,0.0042,0.0003,0.0007,-0.0005,30,-40.73,-27.06,-41.54,122.43,1.9,4.94,5,21.969,,,,NaN,,,,0 / 0,240006,2018-08-11 08:42:26:944
-0.8626,-0.335,9.8564,-0.8538,-0.3248,9.764,0.0003,-0.0004,0.0157,0.0003,0.0007,-0.0005,30,-41.1,-27.67,-40.95,123.34,1.9,5,5,23.988,,,,NaN,,,,0 / 0,240507,2018-08-11 08:42:27:445
-0.8542,-0.329,9.866,-0.8512,-0.3253,9.7642,0.0054,-0.0028,0.0041,0.0003,0.0007,-0.0005,30,-41.46,-28.27,-40.37,123.37,1.9,4.99,5,25.931,,,,NaN,,,,0 / 0,241008,2018-08-11 08:42:27:946
-0.871,-0.341,9.854,-0.8498,-0.3289,9.7642,-0.0101,0.0009,-0.0016,0.0003,-0.0005,-0.0005,30,-41.44,-27.66,-40.95,123.37,1.92,4.97,5,21.443,,,,NaN,,,,0 / 0,241507,2018-08-11 08:42:28:445
-0.8674,-0.3266,9.8516,-0.8482,-0.3281,9.7644,-0.008,-0.0013,-0.0006,0.0003,0.0007,-0.0005,30,-40.21,-27.67,-41.26,123.97,1.92,4.96,5,25.616,,,,NaN,,,,0 / 0,242008,2018-08-11 08:42:28:946
-0.8542,-0.3206,9.8444,-0.8548,-0.3256,9.7639,0.0113,0.0089,-0.0028,0.0003,-0.0005,-0.0005,30,-40.22,-27.66,-41.85,123.92,1.91,5.01,5,25.17,,,,NaN,,,,0 / 0,242507,2018-08-11 08:42:29:445
-0.8638,-0.3158,9.8456,-0.8447,-0.324,9.7648,0.0037,0.0066,0.006,0.0003,-0.0005,-0.0005,30,-40.37,-27.06,-41.54,123.02,1.89,4.94,5,21.022,,,,NaN,,,,0 / 0,243007,2018-08-11 08:42:29:945
-0.8566,-0.335,9.8707,-0.8466,-0.3272,9.7646,0.0009,0.0073,0.0005,-0.001,0.0007,-0.0005,30,-40.55,-26.76,-41.83,122.44,1.91,4.96,5,22.006,,,,NaN,,,,0 / 0,243507,2018-08-11 08:42:30:445
-0.865,-0.3398,9.848,-0.8543,-0.3262,9.7639,-0.0023,0.001,-0.0018,0.0003,0.0007,-0.0005,30,-41.1,-27.67,-40.95,123.35,1.91,4.99,5,26.574,,,,NaN,,,,0 / 0,244007,2018-08-11 08:42:30:945
-0.871,-0.3278,9.8516,-0.8612,-0.3286,9.7632,0.0006,0.001,-0.0003,-0.001,-0.0005,-0.0005,30,-40.56,-27.37,-41.25,122.42,1.92,5.04,5,24.347,,,,NaN,,,,0 / 0,244507,2018-08-11 08:42:31:445
-0.8531,-0.3266,9.8683,-0.8475,-0.3229,9.7646,0.0131,0.0159,0.0083,0.0003,-0.0005,-0.0005,30,-41.27,-27.35,-41.83,122.42,1.91,4.98,5,22.563,,,,NaN,,,,0 / 0,245006,2018-08-11 08:42:31:944
-0.8399,-0.3386,9.8671,-0.8514,-0.3279,9.7641,0.0195,-0.0065,0.0051,0.0003,0.0007,-0.0005,30,-40.58,-27.95,-41.85,123.33,1.91,5,5,22.603,,,,NaN,,,,0 / 0,245507,2018-08-11 08:42:32:445
-0.8578,-0.3434,9.8564,-0.85,-0.3283,9.7642,0.0006,-0.0059,0.001,0.0003,0.0007,-0.0005,30,-41.27,-27.68,-40.07,123.38,1.91,4.97,5,21.295,,,,NaN,,,,0 / 0,246008,2018-08-11 08:42:32:946
-0.8495,-0.3326,9.8564,-0.8544,-0.3303,9.7638,-0.0093,-0.004,-0.003,0.0003,-0.0005,-0.0005,30,-42.18,-28.88,-39.79,123.68,1.93,5,5,20.003,,,,NaN,,,,0 / 0,246507,2018-08-11 08:42:33:445
-0.8686,-0.3254,9.8564,-0.854,-0.3293,9.7638,-0.0065,0.007,-0.0025,-0.001,-0.0005,-0.0005,30,-41.1,-27.67,-40.95,123.36,1.93,5,5,23.604,,,,NaN,,,,0 / 0,247008,2018-08-11 08:42:33:946
-0.8566,-0.335,9.86,-0.8567,-0.3281,9.7636,-0.0029,0.0136,-0.017,-0.001,0.0007,-0.0005,30,-40.38,-27.35,-42.13,123.01,1.92,5.01,5,25.677,,,,NaN,,,,0 / 0,247506,2018-08-11 08:42:34:444
-0.8662,-0.3362,9.8624,-0.8502,-0.3277,9.7642,0.0057,0.0034,0.0086,0.0003,-0.0005,-0.0005,30,-40.05,-27.65,-42.14,123.94,1.92,4.98,5,24.512,,,,NaN,,,,0 / 0,248007,2018-08-11 08:42:34:945
-0.8399,-0.3194,9.8552,-0.8517,-0.3296,9.764,-0.0066,-0.002,-0.0059,0.0003,0.0007,-0.0005,30,-40.73,-27.38,-40.36,122.47,1.92,4.97,5,23.066,,,,NaN,,,,0 / 0,248506,2018-08-11 08:42:35:444
-0.8626,-0.3374,9.8671,-0.8495,-0.3281,9.7643,-0.0008,-0.0082,0.0031,0.0003,0.0007,-0.0005,30,-41.28,-27.96,-41.25,123.36,1.91,4.97,5,22.644,,,,NaN,,,,0 / 0,249007,2018-08-11 08:42:35:945
-0.865,-0.3147,9.8612,-0.8518,-0.3287,9.7641,-0.0004,0.0026,-0.0026,-0.001,-0.0005,-0.0005,30,-40.55,-26.76,-41.83,122.43,1.92,4.98,5,23.731,,,,NaN,,,,0 / 0,249507,2018-08-11 08:42:36:445
-0.8531,-0.3338,9.8755,-0.8508,-0.3295,9.7641,0.0055,0.002,-0.0022,0.0003,-0.0005,-0.0005,30,-41.27,-27.67,-40.66,123.36,1.93,4.98,5,23.323,,,,NaN,,,,0 / 0,250007,2018-08-11 08:42:36:945
-0.8698,-0.3362,9.8552,-0.8541,-0.3279,9.7639,-0.0055,0.0032,-0.0074,0.0003,-0.0005,-0.0005,30,-40.02,-27.08,-40.95,123.04,1.92,5,5,22.481,,,,NaN,,,,0 / 0,250507,2018-08-11 08:42:37:445
-0.8626,-0.3481,9.8504,-0.8528,-0.3293,9.7639,-0.0026,0.0032,-0.0002,-0.001,0.0007,-0.0005,30,-40.01,-26.78,-40.94,123.04,1.92,4.99,5,23.469,,,,NaN,,,,0 / 0,251007,2018-08-11 08:42:37:945
-0.8638,-0.3266,9.8576,-0.8522,-0.3279,9.764,-0.0079,-0.0021,-0.0089,-0.001,0.0007,-0.0005,30,-41.09,-27.36,-41.54,122.43,1.91,4.97,5,22.301,,,,NaN,,,,0 / 0,251507,2018-08-11 08:42:38:445
-0.8542,-0.3218,9.8671,-0.8532,-0.3276,9.764,0.0071,0.0087,0.0082,0.0003,-0.0005,-0.0005,30,-41.64,-28.26,-40.67,122.77,1.91,4.99,5,20.18,,,,NaN,,,,0 / 0,252007,2018-08-11 08:42:38:945
-0.8758,-0.3374,9.8528,-0.8484,-0.3247,9.7645,0.0015,0.0012,-0.0019,-0.001,0.0007,-0.0005,30,-40.56,-27.37,-41.25,122.44,1.9,4.97,5,23.332,,,,NaN,,,,0 / 0,252507,2018-08-11 08:42:39:445
-0.8746,-0.3314,9.8528,-0.8496,-0.3288,9.7642,0.0025,-0.003,0.0034,-0.001,-0.0005,-0.0005,30,-41.63,-27.97,-40.66,122.78,1.92,4.97,5,23.957,,,,NaN,,,,0 / 0,253006,2018-08-11 08:42:39:944
-0.8698,-0.3362,9.854,-0.8534,-0.3307,9.7638,-0.0084,0.0003,-0.0039,0.0003,0.0007,-0.0005,30,-40.37,-26.75,-42.12,123.03,1.93,4.99,5,24.959,,,,NaN,,,,0 / 0,253508,2018-08-11 08:42:40:446
-0.8734,-0.335,9.8504,-0.8506,-0.3291,9.7641,0.0028,0.0017,0.0024,0.0003,-0.0005,-0.0005,30,-41.1,-27.67,-40.95,123.36,1.93,4.98,5,23.042,,,,NaN,,,,0 / 0,254007,2018-08-11 08:42:40:945
-0.8626,-0.341,9.8552,-0.8523,-0.327,9.7641,0.0054,-0.0015,0.0025,-0.001,-0.0005,-0.0005,30,-40.93,-27.96,-41.26,123.35,1.91,4.99,5,22.503,,,,NaN,,,,0 / 0,254508,2018-08-11 08:42:41:446
-0.877,-0.3446,9.854,-0.8522,-0.3263,9.7641,-0.0109,-0.0041,-0.004,0.0003,-0.0005,-0.0005,30,-41.45,-27.96,-40.96,123.35,1.9,4.98,5,23.453,,,,NaN,,,,0 / 0,255007,2018-08-11 08:42:41:945
-0.8662,-0.3302,9.8552,-0.8568,-0.3275,9.7637,-0.003,0.0017,-0.0035,-0.001,0.0007,-0.0005,30,-40.22,-27.66,-41.85,123.92,1.91,5.01,5,24.832,,,,NaN,,,,0 / 0,255506,2018-08-11 08:42:42:444
-0.8519,-0.3242,9.8647,-0.8527,-0.3304,9.7639,0.0031,-0.0119,-0.0051,0.0003,-0.0005,-0.0005,30,-39.83,-26.79,-40.65,123.04,1.92,4.99,5,20.643,,,,NaN,,,,0 / 0,256007,2018-08-11 08:42:42:945
-0.8722,-0.3314,9.8803,-0.8521,-0.3307,9.764,0.0007,0.0014,0.0017,0.0003,-0.0005,-0.0005,30,-41.26,-27.05,-41.83,122.43,1.93,4.99,5,21.423,,,,NaN,,,,0 / 0,256506,2018-08-11 08:42:43:444
-0.8686,-0.3266,9.854,-0.8518,-0.329,9.7641,-0.0099,0.0001,-0.0069,0.0003,-0.0005,-0.0005,30,-40.05,-27.33,-43.32,123,1.92,4.98,5,25.503,,,,NaN,,,,0 / 0,257007,2018-08-11 08:42:43:945
-0.8638,-0.3481,9.8504,-0.8522,-0.329,9.764,-0.0117,0.001,-0.0047,0.0003,0.0007,-0.0017,30,-40.74,-27.36,-41.54,122.43,1.92,4.99,5,24.53,,,,NaN,,,,0 / 0,257507,2018-08-11 08:42:44:445
-0.8614,-0.3362,9.8576,-0.8473,-0.33,9.7644,-0.0029,0.0011,-0.0053,0.0003,0.0007,-0.0005,30,-40.57,-27.65,-41.84,123.35,1.93,4.96,5,22.501,,,,NaN,,,,0 / 0,258007,2018-08-11 08:42:44:945
-0.8674,-0.329,9.8576,-0.8544,-0.3302,9.7638,-0.0038,-0.0041,0.0002,0.0003,0.0007,-0.0005,30,-40.92,-27.97,-40.66,123.36,1.93,5,5,24.803,,,,NaN,,,,0 / 0,258508,2018-08-11 08:42:45:446
-0.8566,-0.3206,9.854,-0.8537,-0.331,9.7638,-0.0063,-0.0003,0.0076,0.0003,-0.0005,-0.0005,30,-40.2,-27.37,-41.25,123.05,1.93,5,5,24.442,,,,NaN,,,,0 / 0,259006,2018-08-11 08:42:45:944
-0.8734,-0.3314,9.8516,-0.85,-0.328,9.7642,-0.0057,-0.0045,-0.0034,-0.001,-0.0005,0.0007,30,-40.04,-27.35,-42.14,123.02,1.9,4.97,5,26.054,,,,NaN,,,,0 / 0,259506,2018-08-11 08:42:46:444
-0.859,-0.3254,9.86,-0.8515,-0.3297,9.7641,-0.0014,0.0015,0.0019,0.0003,-0.0005,-0.0005,30,-40.37,-26.74,-42.71,123,1.93,4.98,5,27.606,,,,NaN,,,,0 / 0,260007,2018-08-11 08:42:46:945
-0.8542,-0.3457,9.8576,-0.8557,-0.3295,9.7637,-0.0086,-0.0003,-0.0049,-0.001,0.0007,-0.0005,30,-40.02,-27.07,-41.54,123.02,1.92,5,5,28.715,,,,NaN,,,,0 / 0,260506,2018-08-11 08:42:47:444
-0.871,-0.3194,9.8636,-0.8547,-0.3289,9.7638,0.0056,0.0023,0.0032,0.0003,-0.0005,-0.0005,30,-40.73,-27.38,-40.36,122.46,1.92,5,5,22.895,,,,NaN,,,,0 / 0,261007,2018-08-11 08:42:47:945
-0.8566,-0.323,9.854,-0.8599,-0.3275,9.7634,0.0073,0.0086,-0.0005,0.0003,0.0007,-0.0005,30,-39.65,-26.16,-42.12,122.06,1.92,5.04,5,23.691,,,,NaN,,,,0 / 0,261507,2018-08-11 08:42:48:445
-0.8531,-0.335,9.8564,-0.8598,-0.3258,9.7635,-0.0041,0.0001,-0.0015,0.0003,-0.0005,-0.0005,30,-40.38,-27.35,-42.13,122.99,1.9,5.03,5,22.478,,,,NaN,,,,0 / 0,262006,2018-08-11 08:42:48:944
-0.8698,-0.3302,9.8552,-0.8562,-0.3283,9.7637,-0.0049,0.0013,-0.0032,-0.001,0.0007,-0.0005,30,-40.92,-27.34,-42.43,122.42,1.92,5.01,5,23.041,,,,NaN,,,,0 / 0,262508,2018-08-11 08:42:49:446
-0.8674,-0.3218,9.8468,-0.8531,-0.3306,9.7639,-0.0004,-0.0023,-0.002,0.0003,0.0007,-0.0005,30,-41.09,-27.05,-42.12,122.43,1.93,4.99,5,24.79,,,,NaN,,,,0 / 0,263006,2018-08-11 08:42:49:944
-0.8602,-0.335,9.8612,-0.8501,-0.3301,9.7642,0.0017,0.0059,-0.0028,-0.001,0.0007,-0.0005,30,-40.9,-26.75,-41.83,122.44,1.93,4.98,5,27.126,,,,NaN,,,,0 / 0,263507,2018-08-11 08:42:50:445
-0.8722,-0.3398,9.8444,-0.8576,-0.3259,9.7636,-0.0036,0.0058,-0.0036,0.0003,-0.0005,-0.0017,30,-40.56,-27.37,-41.25,122.43,1.91,5.02,5,25.661,,,,NaN,,,,0 / 0,264008,2018-08-11 08:42:50:946
-0.8531,-0.3326,9.8576,-0.857,-0.3262,9.7637,0.0098,-0.0038,0.0031,0.0015,-0.0005,-0.0005,30,-40.59,-28.24,-42.44,123.31,1.91,5.03,5,22.605,,,,NaN,,,,0 / 0,264507,2018-08-11 08:42:51:445
-0.8674,-0.3302,9.8492,-0.8548,-0.3294,9.7638,-0.0025,-0.0078,0.0092,0.0003,-0.0005,-0.0005,30,-40.39,-27.65,-42.14,123.93,1.92,5,5,23.495,,,,NaN,,,,0 / 0,265007,2018-08-11 08:42:51:945
-0.8674,-0.3302,9.86,-0.8541,-0.3312,9.7638,-0.0047,0.0046,-0.0061,0.0003,-0.0005,-0.0005,30,-40.57,-27.33,-43.02,122.41,1.94,5,5,27.244,,,,NaN,,,,0 / 0,265507,2018-08-11 08:42:52:445
-0.8566,-0.3278,9.8636,-0.8532,-0.3268,9.764,0.0005,0.0037,-0.0028,0.0003,0.0007,-0.0005,30,-40.37,-27.08,-40.95,123.03,1.91,4.99,5,23.691,,,,NaN,,,,0 / 0,266008,2018-08-11 08:42:52:946
-0.8614,-0.3254,9.8624,-0.8546,-0.3319,9.7637,0.0059,0.006,0.011,-0.001,-0.0005,-0.0005,30,-40.22,-27.64,-42.43,123.94,1.94,5.01,5,22.867,,,,NaN,,,,0 / 0,266506,2018-08-11 08:42:53:444
-0.8507,-0.335,9.8624,-0.8511,-0.3278,9.7641,-0.0114,0.0002,-0.0035,0.0003,-0.0005,-0.0005,30,-40.38,-27.67,-40.96,123.96,1.92,4.97,5,21.588,,,,NaN,,,,0 / 0,267007,2018-08-11 08:42:53:945
-0.8758,-0.3254,9.8624,-0.857,-0.3282,9.7636,-0.0076,-0.0056,0.0084,0.0003,-0.0005,0.0007,30,-40.04,-27.35,-42.14,123.01,1.91,5.01,5,24.397,,,,NaN,,,,0 / 0,267507,2018-08-11 08:42:54:445
-0.8566,-0.3374,9.8636,-0.8552,-0.3287,9.7638,0.0035,-0.0043,0.0105,0.0003,0.0007,-0.0005,30,-40.23,-27.95,-41.85,123.93,1.92,5.01,5,22.22,,,,NaN,,,,0 / 0,268006,2018-08-11 08:42:54:944
-0.8662,-0.3266,9.8516,-0.8523,-0.3286,9.764,-0.0031,0.0044,-0.0084,0.0003,-0.0005,-0.0005,30,-40.39,-27.65,-42.14,123.94,1.93,4.99,5,22.284,,,,NaN,,,,0 / 0,268507,2018-08-11 08:42:55:445
-0.8483,-0.3374,9.866,-0.8546,-0.3281,9.7638,0.0059,0.0102,0.0087,-0.001,0.0007,-0.0005,30,-40.76,-27.94,-42.14,123.33,1.92,5.01,5,23.269,,,,NaN,,,,0 / 0,269007,2018-08-11 08:42:55:945
-0.8722,-0.3362,9.854,-0.8534,-0.3261,9.764,-0.0066,-0.0022,0.0083,0.0003,-0.0005,-0.0005,30,-40.75,-27.66,-41.55,123.32,1.9,4.99,5,26.407,,,,NaN,,,,0 / 0,269507,2018-08-11 08:42:56:445
-0.8578,-0.3386,9.8576,-0.8576,-0.3274,9.7636,-0.0157,-0.0033,-0.0046,0.0003,-0.0005,-0.0005,30,-40.37,-27.08,-40.95,123.02,1.91,5.02,5,25.426,,,,NaN,,,,0 / 0,270007,2018-08-11 08:42:56:945
-0.871,-0.3278,9.8504,-0.8588,-0.3295,9.7634,-0.0019,0.0011,-0.0072,-0.001,-0.0005,-0.0017,30,-41.26,-27.38,-40.06,122.45,1.92,5.03,5,25.307,,,,NaN,,,,0 / 0,270507,2018-08-11 08:42:57:445
-0.8519,-0.3398,9.8612,-0.8524,-0.3283,9.764,0.0075,-0.0069,-0.0008,0.0003,0.0007,-0.0005,30,-40.77,-28.24,-42.15,123.33,1.91,4.99,5,25.043,,,,NaN,,,,0 / 0,271007,2018-08-11 08:42:57:945
-0.859,-0.329,9.8588,-0.8538,-0.3299,9.7638,-0.0053,0.0059,-0.0037,0.0003,-0.0005,-0.0017,30,-41.27,-27.68,-40.07,123.38,1.93,4.99,5,25.79,,,,NaN,,,,0 / 0,271507,2018-08-11 08:42:58:445
-0.8471,-0.3338,9.8767,-0.8535,-0.3281,9.7639,0.0022,0.0027,-0.0044,0.0003,0.0007,-0.0005,30,-41.44,-27.37,-40.95,122.44,1.92,5,5,28.234,,,,NaN,,,,0 / 0,272007,2018-08-11 08:42:58:945
-0.8554,-0.3314,9.8647,-0.8557,-0.326,9.7638,0.0004,-0.001,-0.0015,0.0003,-0.0005,-0.0005,30,-40.73,-27.05,-42.13,122.41,1.9,5.01,5,27.952,,,,NaN,,,,0 / 0,272508,2018-08-11 08:42:59:446
-0.8758,-0.3158,9.86,-0.8555,-0.3221,9.764,0.002,0.0128,-0.0077,0.0003,0.0007,-0.0005,30,-40.91,-27.35,-41.84,122.4,1.89,5.01,5,21.625,,,,NaN,,,,0 / 0,273007,2018-08-11 08:42:59:945
-0.8554,-0.3314,9.866,-0.8537,-0.3267,9.764,-0.0067,-0.0039,-0.0036,0.0003,0.0007,-0.0017,30,-40.38,-27.67,-40.96,123.95,1.91,5,5,21.416,,,,NaN,,,,0 / 0,273507,2018-08-11 08:43:00:445
-0.859,-0.3386,9.86,-0.8518,-0.3286,9.7641,-0.0046,0.0054,-0.0067,0.0003,0.0007,-0.0005,30,-40.76,-27.94,-42.14,123.34,1.92,4.98,5,22.113,,,,NaN,,,,0 / 0,274007,2018-08-11 08:43:00:945
-0.8483,-0.3386,9.8695,-0.8531,-0.3282,9.764,0.0041,-0.0019,0.0054,0.0003,0.0007,0.0007,30,-41.28,-27.65,-41.84,123.33,1.92,4.99,5,25.791,,,,NaN,,,,0 / 0,274506,2018-08-11 08:43:01:444
-0.8375,-0.3206,9.8767,-0.8531,-0.3263,9.764,0.0008,0.007,-0.0066,0.0003,0.0007,-0.0005,30,-40.57,-27.34,-42.43,122.42,1.92,4.99,5,26.523,,,,NaN,,,,0 / 0,275007,2018-08-11 08:43:01:945
-0.8566,-0.3302,9.8612,-0.8499,-0.3265,9.7643,-0.0092,0.0013,-0.0037,0.0003,-0.0005,-0.0005,30,-41.1,-27.34,-42.13,122.42,1.91,4.97,5,26.825,,,,NaN,,,,0 / 0,275507,2018-08-11 08:43:02:445
-0.8662,-0.3182,9.8492,-0.8575,-0.3257,9.7637,0.0053,0.0074,0.0056,0.0003,0.0007,-0.0005,30,-41.09,-27.37,-40.95,122.43,1.91,5.02,5,26.73,,,,NaN,,,,0 / 0,276007,2018-08-11 08:43:02:945
-0.8542,-0.3278,9.86,-0.8533,-0.3286,9.7639,0.0032,-0.0092,0.0046,-0.001,-0.0005,-0.0005,30,-40.75,-27.97,-40.96,123.35,1.92,4.99,5,24.448,,,,NaN,,,,0 / 0,276506,2018-08-11 08:43:03:444
-0.865,-0.3266,9.8588,-0.8549,-0.3282,9.7638,-0.0034,0.0039,-0.0021,0.0003,-0.0005,-0.0005,30,-40.57,-27.65,-41.84,123.33,1.92,5,5,23.396,,,,NaN,,,,0 / 0,277007,2018-08-11 08:43:03:945
-0.871,-0.3278,9.8552,-0.8544,-0.331,9.7638,0.0043,0.0034,0.0042,0.0003,-0.0005,-0.0005,30,-40.75,-27.64,-42.14,123.34,1.94,5.01,5,22.676,,,,NaN,,,,0 / 0,277508,2018-08-11 08:43:04:446
-0.859,-0.335,9.86,-0.8548,-0.3286,9.7638,0.0066,-0.0008,0.015,0.0003,0.0007,-0.0005,30,-40.92,-27.97,-40.66,123.35,1.92,5,5,22.885,,,,NaN,,,,0 / 0,278007,2018-08-11 08:43:04:945
-0.8471,-0.3422,9.8636,-0.8506,-0.3285,9.7642,0.0054,0.004,-0.0002,0.0003,-0.0005,-0.0005,30,-41.63,-27.98,-40.07,122.8,1.93,4.99,5,24.618,,,,NaN,,,,0 / 0,278506,2018-08-11 08:43:05:444
-0.8578,-0.3338,9.8576,-0.8557,-0.3287,9.7637,0.0008,-0.0015,-0.0019,-0.001,0.0007,-0.0005,30,-40.56,-27.37,-41.25,122.44,1.92,5.01,5,26.423,,,,NaN,,,,0 / 0,279007,2018-08-11 08:43:05:945
-0.8519,-0.3481,9.8528,-0.8528,-0.3297,9.7639,-0.0032,0.0012,0.0089,-0.001,0.0007,-0.0005,30,-40.39,-27.33,-43.32,123,1.93,4.99,5,25.19,,,,NaN,,,,0 / 0,279507,2018-08-11 08:43:06:445
-0.8459,-0.3326,9.8636,-0.855,-0.3321,9.7637,0.0018,0.0006,0.0039,-0.001,0.0007,0.0007,30,-41.63,-27.97,-40.66,122.78,1.94,5,5,26.4,,,,NaN,,,,0 / 0,280006,2018-08-11 08:43:06:944
-0.8782,-0.335,9.8516,-0.8573,-0.3281,9.7636,-0.0063,0.0025,-0.0056,0.0003,-0.0005,-0.0005,30,-39.86,-27.34,-43.02,122.99,1.92,5.01,5,22.961,,,,NaN,,,,0 / 0,280507,2018-08-11 08:43:07:445
-0.871,-0.3326,9.8552,-0.8577,-0.3304,9.7635,-0.004,-0.0003,-0.002,0.0003,0.0007,-0.0005,30,-41.43,-27.07,-40.94,122.44,1.93,5.01,5,22.907,,,,NaN,,,,0 / 0,281006,2018-08-11 08:43:07:944
-0.865,-0.3434,9.8528,-0.8531,-0.3316,9.7638,-0.0038,-0.0072,-0.006,-0.001,-0.0005,0.0007,30,-40.03,-27.36,-41.55,123.02,1.93,4.99,5,23.4,,,,NaN,,,,0 / 0,281508,2018-08-11 08:43:08:446
-0.8602,-0.3457,9.8647,-0.8551,-0.33,9.7637,-0.0084,-0.0037,-0.0047,0.0003,-0.0005,-0.0005,30,-41.07,-27.09,-39.76,122.47,1.93,5,5,24.147,,,,NaN,,,,0 / 0,282007,2018-08-11 08:43:08:945
-0.8602,-0.341,9.8647,-0.8555,-0.3277,9.7638,0.0026,0.0079,-0.0003,0.0015,0.0007,-0.0005,30,-41.81,-27.96,-40.95,122.76,1.92,5.01,5,23.945,,,,NaN,,,,0 / 0,282507,2018-08-11 08:43:09:445
-0.859,-0.329,9.854,-0.8537,-0.3291,9.7639,-0.0021,0.0097,-0.0068,0.0003,0.0007,-0.0005,30,-40.38,-27.36,-41.54,123.03,1.94,4.99,5,21.871,,,,NaN,,,,0 / 0,283007,2018-08-11 08:43:09:945
-0.8722,-0.3446,9.8432,-0.8533,-0.3281,9.7639,-0.0079,-0.01,-0.0102,-0.001,0.0007,-0.0005,30,-40.21,-27.04,-43.02,122.99,1.91,4.99,5,21.362,,,,NaN,,,,0 / 0,283507,2018-08-11 08:43:10:445
-0.8542,-0.3194,9.86,-0.8525,-0.3294,9.764,0.0048,0,-0.0017,0.0003,-0.0005,-0.0005,30,-40.23,-27.95,-41.85,123.94,1.93,4.99,5,25.089,,,,NaN,,,,0 / 0,284007,2018-08-11 08:43:10:945
-0.8722,-0.3206,9.8444,-0.8528,-0.3302,9.7639,-0.0042,-0.0011,-0.0031,-0.001,-0.0005,-0.0005,30,-41.29,-28.25,-41.26,123.36,1.93,4.99,5,21.409,,,,NaN,,,,0 / 0,284507,2018-08-11 08:43:11:445
-0.8782,-0.3362,9.842,-0.8536,-0.3297,9.7639,-0.0091,-0.0013,-0.0041,0.0003,0.0007,-0.0005,30,-40.57,-27.97,-40.67,123.36,1.93,4.99,5,23.262,,,,NaN,,,,0 / 0,285007,2018-08-11 08:43:11:945
-0.859,-0.3338,9.8803,-0.8527,-0.3285,9.764,0.0005,-0.0038,0.0053,0.0003,-0.0005,-0.0005,30,-41.43,-27.38,-40.36,122.47,1.92,4.99,5,23.316,,,,NaN,,,,0 / 0,285507,2018-08-11 08:43:12:445
-0.8375,-0.3326,9.8671,-0.8488,-0.3285,9.7643,0.0195,-0.001,0.0038,0.0003,0.0007,-0.0017,30,-41.11,-27.94,-42.14,123.34,1.92,4.98,5,22.772,,,,NaN,,,,0 / 0,286007,2018-08-11 08:43:12:945
-0.8399,-0.3362,9.8647,-0.8517,-0.3296,9.764,0.0028,0.0063,0.0071,-0.001,-0.0005,-0.0005,30,-41.28,-27.96,-41.25,123.36,1.93,4.99,5,25.715,,,,NaN,,,,0 / 0,286507,2018-08-11 08:43:13:445
-0.877,-0.3362,9.854,-0.853,-0.3264,9.764,-0.0125,0.0033,-0.0127,0.0003,0.0007,-0.0005,30,-40.4,-27.96,-41.55,123.93,1.91,4.98,5,23.444,,,,NaN,,,,0 / 0,287007,2018-08-11 08:43:13:945
-0.883,-0.3386,9.8504,-0.8534,-0.329,9.7639,0.0026,0.0042,0.0121,0.0003,0.0007,-0.0005,30,-40.93,-27.95,-41.85,123.34,1.93,5,5,20.808,,,,NaN,,,,0 / 0,287507,2018-08-11 08:43:14:445
-0.8578,-0.3362,9.8671,-0.8533,-0.3298,9.7639,0.0037,-0.0035,0.0064,0.0003,-0.0005,-0.0005,30,-41.27,-27.34,-42.42,122.43,1.93,5,5,23.34,,,,NaN,,,,0 / 0,288008,2018-08-11 08:43:14:946
-0.8638,-0.3302,9.8576,-0.8514,-0.3319,9.764,-0.0041,0.0076,-0.0021,0.0003,0.0007,-0.0005,30,-40.19,-26.76,-41.83,123.04,1.95,4.98,5,22.657,,,,NaN,,,,0 / 0,288507,2018-08-11 08:43:15:445
-0.8638,-0.3218,9.8588,-0.8546,-0.3335,9.7636,-0.0014,0.0021,-0.0007,0.0003,0.0007,-0.0005,30,-41.12,-27.92,-43.32,123.32,1.95,5,5,23.48,,,,NaN,,,,0 / 0,289008,2018-08-11 08:43:15:946
-0.8566,-0.329,9.8612,-0.8489,-0.3276,9.7643,-0.001,0.0032,-0.0014,0.0003,-0.0005,-0.0005,30,-41.08,-27.08,-40.35,122.47,1.92,4.97,5,22.292,,,,NaN,,,,0 / 0,289508,2018-08-11 08:43:16:446
-0.8626,-0.3302,9.8576,-0.8529,-0.3302,9.7639,0.0036,0.0013,0.0009,0.0003,0.0007,-0.0005,30,-41.64,-27.95,-41.25,122.78,1.93,4.99,5,21.355,,,,NaN,,,,0 / 0,290006,2018-08-11 08:43:16:944
-0.8626,-0.3302,9.8612,-0.854,-0.329,9.7639,-0.0064,-0.003,-0.0039,-0.001,-0.0005,-0.0005,30,-41.28,-27.65,-41.84,123.33,1.92,4.99,5,25.062,,,,NaN,,,,0 / 0,290507,2018-08-11 08:43:17:445
-0.8782,-0.3374,9.8456,-0.8569,-0.3312,9.7635,0.0115,0,0.0076,0.0003,-0.0005,-0.0005,30,-41.44,-27.66,-40.95,123.35,1.94,5.02,5,26.863,,,,NaN,,,,0 / 0,291006,2018-08-11 08:43:17:944
-0.8854,-0.3314,9.8492,-0.8591,-0.3276,9.7635,-0.0111,0.0022,-0.0043,0.0003,-0.0005,-0.0005,30,-40.93,-28.27,-40.67,123.34,1.92,5.02,5,23.378,,,,NaN,,,,0 / 0,291507,2018-08-11 08:43:18:445
-0.8746,-0.329,9.8516,-0.854,-0.3328,9.7637,0.0045,-0.0105,0.0026,0.0003,0.0007,-0.0005,30,-41.27,-27.67,-40.66,123.36,1.94,5,5,24.152,,,,NaN,,,,0 / 0,292008,2018-08-11 08:43:18:946
-0.8554,-0.3422,9.8695,-0.851,-0.3277,9.7642,0.0097,-0.0031,0.0044,0.0003,-0.0005,-0.0005,30,-40.36,-26.78,-40.94,123.04,1.92,4.98,5,21.604,,,,NaN,,,,0 / 0,292506,2018-08-11 08:43:19:444
-0.8746,-0.3314,9.8492,-0.8522,-0.3302,9.764,0.0023,0.0029,-0.0001,0.0003,0.0007,-0.0005,30,-40.93,-28.26,-41.26,123.36,1.93,4.99,5,22.445,,,,NaN,,,,0 / 0,293007,2018-08-11 08:43:19:945
-0.8638,-0.3254,9.8719,-0.8506,-0.3327,9.764,0.0055,-0.0065,0.0088,-0.001,-0.0005,-0.0005,30,-41.44,-27.69,-39.77,123.39,1.94,4.98,5,21.755,,,,NaN,,,,0 / 0,293507,2018-08-11 08:43:20:445
-0.8578,-0.3398,9.86,-0.8531,-0.3307,9.7639,0.0029,-0.0076,-0.001,-0.001,0.0007,-0.0005,30,-40.74,-27.36,-41.54,122.43,1.92,4.99,5,22.145,,,,NaN,,,,0 / 0,294007,2018-08-11 08:43:20:945
-0.8578,-0.3446,9.8516,-0.8565,-0.3324,9.7635,0.0068,-0.0088,-0.0019,-0.001,0.0007,-0.0005,30,-40.59,-27.94,-42.44,123.33,1.93,5.02,5,25.791,,,,NaN,,,,0 / 0,294507,2018-08-11 08:43:21:445
-0.859,-0.3314,9.8624,-0.854,-0.3297,9.7638,-0.0063,0.0024,-0.0009,0.0003,-0.0005,-0.0005,30,-39.84,-27.06,-41.84,123.02,1.93,5,5,23.767,,,,NaN,,,,0 / 0,295007,2018-08-11 08:43:21:945
-0.8471,-0.3446,9.8719,-0.8561,-0.3335,9.7635,-0.0002,0.0047,-0.0044,-0.001,0.0007,-0.0005,30,-40.55,-26.44,-43,121.49,1.95,5.01,5,31.095,,,,NaN,,,,0 / 0,295507,2018-08-11 08:43:22:445
-0.8602,-0.3398,9.8528,-0.8509,-0.3344,9.7639,-0.0004,0.0022,-0.0002,-0.001,-0.0005,-0.0005,30,-40.94,-28.25,-41.85,123.36,1.95,4.98,5,34.903,,,,NaN,,,,0 / 0,296007,2018-08-11 08:43:22:945
-0.8483,-0.3362,9.8695,-0.8548,-0.3318,9.7637,-0.0154,0.0067,-0.0013,0.0003,-0.0005,-0.0017,30,-40.22,-27.66,-41.85,123.95,1.94,4.99,5,33.936,,,,NaN,,,,0 / 0,296507,2018-08-11 08:43:23:445
-0.8746,-0.3422,9.8791,-0.8587,-0.3277,9.7635,0.0008,0.0017,0.0049,0.0003,0.0007,-0.0005,30,-40.38,-27.35,-42.13,123,1.92,5.03,5,22.03,,,,NaN,,,,0 / 0,297006,2018-08-11 08:43:23:944
-0.883,-0.3314,9.8456,-0.8576,-0.3271,9.7636,-0.0157,-0.0019,-0.0137,0.0003,-0.0005,-0.0005,30,-41.11,-28.26,-40.97,123.34,1.91,5.01,5,31.465,,,,NaN,,,,0 / 0,297507,2018-08-11 08:43:24:445
-0.8531,-0.3326,9.8671,-0.8555,-0.3302,9.7637,0.0098,-0.0006,0.0067,-0.001,-0.0005,-0.0005,30,-40.57,-27.35,-41.84,122.42,1.93,5.02,5,39.374,,,,NaN,,,,0 / 0,298007,2018-08-11 08:43:24:945
-0.8542,-0.3338,9.8624,-0.8559,-0.3337,9.7635,-0.0074,0.0098,-0.004,-0.001,0.0007,0.0007,30,-41.8,-27.66,-40.95,122.79,1.96,4.99,5,27.831,,,,NaN,,,,0 / 0,298507,2018-08-11 08:43:25:445
-0.8614,-0.3278,9.8564,-0.8561,-0.3322,9.7636,0.0002,0.0008,0.0009,0.0003,-0.0005,0.0007,30,-40.72,-26.76,-41.53,122.43,1.94,5.01,5,21.588,,,,NaN,,,,0 / 0,299007,2018-08-11 08:43:25:945
-0.8459,-0.3326,9.8612,-0.8503,-0.329,9.7642,0.0093,0.0069,0.0052,0.0003,-0.0005,-0.0005,30,-40.03,-27.36,-41.55,123.03,1.93,4.99,5,21.914,,,,NaN,,,,0 / 0,299507,2018-08-11 08:43:26:445
-0.8519,-0.3505,9.8564,-0.8562,-0.3343,9.7635,-0.0101,-0.0161,-0.0053,-0.001,0.0007,-0.0005,30,-40.74,-27.67,-40.96,123.37,1.95,5.01,5,25.179,,,,NaN,,,,0 / 0,300007,2018-08-11 08:43:26:945
-0.859,-0.317,9.86,-0.8559,-0.3307,9.7636,0.0024,0.0147,0.0026,-0.001,0.0007,-0.0005,30,-40.74,-27.36,-41.54,122.43,1.94,5.01,5,25.549,,,,NaN,,,,0 / 0,300507,2018-08-11 08:43:27:445
-0.8842,-0.3362,9.8456,-0.8522,-0.33,9.764,-0.0081,0.0058,-0.0046,0.0003,0.0007,-0.0005,30,-40.9,-27.06,-41.24,122.46,1.93,4.98,5,25.955,,,,NaN,,,,0 / 0,301007,2018-08-11 08:43:27:945
-0.8423,-0.3099,9.8695,-0.8519,-0.3293,9.764,0.0006,0.0044,-0.0029,0.0003,-0.0005,-0.0005,30,-40.21,-27.36,-41.84,123.02,1.92,4.99,5,26.058,,,,NaN,,,,0 / 0,301507,2018-08-11 08:43:28:445
-0.8758,-0.3398,9.8504,-0.8533,-0.329,9.7639,0.0015,0.0007,0.0009,-0.001,-0.0005,-0.0005,30,-41.11,-27.96,-40.96,123.35,1.92,5,5,27.808,,,,NaN,,,,0 / 0,302007,2018-08-11 08:43:28:945
-0.8471,-0.3314,9.8671,-0.8519,-0.3309,9.764,0.0121,0.0011,0.0071,-0.001,-0.0005,-0.0005,30,-41.27,-27.66,-41.25,123.36,1.93,5,5,24.936,,,,NaN,,,,0 / 0,302507,2018-08-11 08:43:29:445
-0.8638,-0.329,9.8695,-0.8518,-0.3301,9.764,-0.017,-0.0024,-0.0138,0.0003,-0.0005,-0.0005,30,-40.19,-27.08,-40.65,123.05,1.93,4.97,5,24.592,,,,NaN,,,,0 / 0,303007,2018-08-11 08:43:29:945
-0.8459,-0.3398,9.8743,-0.8581,-0.328,9.7635,-0.0029,0.0008,-0.0011,0.0003,-0.0005,-0.0005,30,-41.64,-28.26,-40.67,122.76,1.92,5.02,5,22.262,,,,NaN,,,,0 / 0,303508,2018-08-11 08:43:30:446
-0.8578,-0.335,9.86,-0.8499,-0.3319,9.7641,0.0012,0.0026,0.0063,0.0003,-0.0005,-0.0005,30,-41.63,-27.66,-41.25,122.79,1.94,4.98,5,23.443,,,,NaN,,,,0 / 0,304007,2018-08-11 08:43:30:945
-0.8746,-0.3326,9.8504,-0.8571,-0.3291,9.7636,-0.0132,0.0004,-0.0107,-0.001,-0.0005,-0.0005,30,-40.91,-27.67,-40.66,123.35,1.92,5.02,5,26.441,,,,NaN,,,,0 / 0,304507,2018-08-11 08:43:31:445
-0.8471,-0.3278,9.8767,-0.8536,-0.3285,9.7639,0.0147,0.0039,0.0162,0.0003,-0.0005,-0.0005,30,-40.04,-27.66,-41.55,123.93,1.92,5,5,23.779,,,,NaN,,,,0 / 0,305007,2018-08-11 08:43:31:945
-0.871,-0.3326,9.8647,-0.8562,-0.3284,9.7637,-0.0131,-0.0001,-0.0067,0.0003,-0.0005,-0.0005,30,-40.75,-27.66,-41.55,123.33,1.92,4.99,5,24.674,,,,NaN,,,,0 / 0,305506,2018-08-11 08:43:32:444
-0.8411,-0.3314,9.8624,-0.8565,-0.3282,9.7637,0.0053,0.0014,0.0015,0.0003,-0.0005,-0.0005,30,-41.46,-28.26,-40.96,123.34,1.92,5.02,5,25.504,,,,NaN,,,,0 / 0,306007,2018-08-11 08:43:32:945
-0.8758,-0.3362,9.848,-0.8583,-0.331,9.7634,-0.0122,0.0024,-0.0043,0.0003,0.0007,-0.0005,30,-40.58,-27.64,-42.43,123.34,1.94,5,5,23.773,,,,NaN,,,,0 / 0,306507,2018-08-11 08:43:33:445
-0.8734,-0.3326,9.8528,-0.8503,-0.3313,9.7641,-0.0115,0.0015,-0.0056,0.0003,0.0007,-0.0005,30,-40.92,-27.65,-41.84,123.35,1.94,4.97,5,24.02,,,,NaN,,,,0 / 0,307006,2018-08-11 08:43:33:944
-0.8614,-0.329,9.8576,-0.8513,-0.3297,9.7641,-0.0036,0.003,-0.0006,0.0003,-0.0005,-0.0005,30,-41.81,-27.95,-41.55,122.76,1.93,4.98,5,25.229,,,,NaN,,,,0 / 0,307507,2018-08-11 08:43:34:445
-0.8626,-0.3374,9.8588,-0.8517,-0.3296,9.764,0.0025,0.0009,0.0005,0.0003,-0.0005,-0.0005,30,-41.64,-27.95,-41.25,122.78,1.93,4.99,5,24.248,,,,NaN,,,,0 / 0,308007,2018-08-11 08:43:34:945
-0.8542,-0.3182,9.8671,-0.8558,-0.3291,9.7637,0.0032,0.0088,0.0065,-0.001,0.0007,-0.0005,30,-41.09,-27.06,-41.53,122.42,1.93,5.01,5,26.019,,,,NaN,,,,0 / 0,308507,2018-08-11 08:43:35:445
-0.8734,-0.335,9.8468,-0.8539,-0.3298,9.7638,0.0096,0.0027,0.0005,-0.001,-0.0005,-0.0005,30,-40.57,-27.35,-41.84,122.43,1.93,5,5,25.114,,,,NaN,,,,0 / 0,309007,2018-08-11 08:43:35:945
-0.8662,-0.3338,9.8564,-0.855,-0.3302,9.7637,-0.0096,-0.0015,-0.014,0.0003,0.0007,-0.0005,30,-40.57,-27.68,-40.66,123.36,1.93,5,5,24.516,,,,NaN,,,,0 / 0,309507,2018-08-11 08:43:36:445
-0.8794,-0.3314,9.848,-0.8526,-0.3341,9.7638,0.0057,-0.0014,0.0017,-0.001,-0.0005,-0.0005,30,-41.98,-27.96,-41.55,122.78,1.95,5,5,22.83,,,,NaN,,,,0 / 0,310006,2018-08-11 08:43:36:944
-0.8758,-0.3338,9.854,-0.8518,-0.3327,9.7639,-0.0094,-0.0024,-0.006,0.0003,0.0007,-0.0005,30,-40.75,-27.64,-42.14,123.35,1.94,4.98,5,26.128,,,,NaN,,,,0 / 0,310506,2018-08-11 08:43:37:444
-0.859,-0.3398,9.8755,-0.8539,-0.3316,9.7638,0.0035,-0.0077,0.0086,0.0003,-0.0005,-0.0005,30,-40.75,-27.01,-43.9,122.38,1.93,5.01,5,21.152,,,,NaN,,,,0 / 0,311006,2018-08-11 08:43:37:944
-0.8734,-0.335,9.8528,-0.8544,-0.3317,9.7637,-0.0101,-0.0001,-0.0045,0.0003,0.0007,-0.0005,30,-40.37,-26.75,-42.12,123.03,1.94,4.99,5,21.916,,,,NaN,,,,0 / 0,311506,2018-08-11 08:43:38:444
-0.8495,-0.3134,9.8671,-0.8543,-0.3305,9.7638,0.0057,0.0145,0.0026,0.0003,-0.0005,-0.0005,30,-40.75,-27.66,-41.55,123.34,1.94,5.01,5,24.969,,,,NaN,,,,0 / 0,312006,2018-08-11 08:43:38:944
-0.8614,-0.3194,9.8552,-0.8567,-0.3301,9.7636,-0.0043,0.0076,-0.0077,0.0003,0.0007,-0.0005,30,-40.75,-27.66,-41.55,123.33,1.93,5.01,5,24.934,,,,NaN,,,,0 / 0,312507,2018-08-11 08:43:39:445
-0.8531,-0.3266,9.8671,-0.8559,-0.3287,9.7637,0.0069,0.0053,0.0044,0.0003,-0.0005,0.0007,30,-41.09,-27.36,-41.54,122.42,1.93,5.02,5,24.547,,,,NaN,,,,0 / 0,313007,2018-08-11 08:43:39:945
-0.8782,-0.3326,9.8516,-0.8586,-0.3308,9.7634,-0.0109,0.0021,-0.004,-0.001,-0.0005,-0.0005,30,-41.26,-27.05,-41.83,122.42,1.93,5.02,5,23.238,,,,NaN,,,,0 / 0,313507,2018-08-11 08:43:40:445
-0.8758,-0.3338,9.848,-0.859,-0.3324,9.7633,-0.0079,-0.0098,-0.0086,0.0003,-0.0005,-0.0005,30,-40.38,-27.36,-41.54,123.01,1.94,5.02,5,22.411,,,,NaN,,,,0 / 0,314007,2018-08-11 08:43:40:945
-0.8471,-0.3266,9.8695,-0.8564,-0.3311,9.7636,0.0028,0.0093,0.0047,-0.001,0.0007,0.0007,30,-41.11,-28.26,-40.97,123.35,1.93,5.01,5,23.087,,,,NaN,,,,0 / 0,314507,2018-08-11 08:43:41:445
-0.8471,-0.3326,9.8671,-0.8562,-0.3294,9.7636,0.0118,-0.0004,0.0062,-0.001,-0.0005,-0.0005,30,-41.62,-27.37,-40.65,121.86,1.92,5.02,5,24.405,,,,NaN,,,,0 / 0,315008,2018-08-11 08:43:41:946
-0.8459,-0.3374,9.8731,-0.8545,-0.3316,9.7637,0.012,0.001,0.0056,0.0003,-0.0005,-0.0005,30,-41.46,-28.26,-40.96,123.35,1.94,5.02,5,22.631,,,,NaN,,,,0 / 0,315507,2018-08-11 08:43:42:445
-0.871,-0.3481,9.8612,-0.8568,-0.3291,9.7636,-0.0119,0.0023,-0.0087,0.0003,0.0007,-0.0005,30,-41.11,-27.96,-40.96,123.35,1.92,5.02,5,21.415,,,,NaN,,,,0 / 0,316008,2018-08-11 08:43:42:946
-0.8698,-0.323,9.8647,-0.8583,-0.3302,9.7634,-0.002,0.0015,0.0021,-0.001,-0.0005,-0.0005,30,-41.64,-27.95,-41.25,122.76,1.93,5.02,5,25.885,,,,NaN,,,,0 / 0,316507,2018-08-11 08:43:43:445
-0.8674,-0.3302,9.8552,-0.8574,-0.3307,9.7635,0.0059,-0.0046,0.0025,-0.001,-0.0005,-0.0005,30,-41.27,-27.35,-41.83,122.42,1.93,5.02,5,23.526,,,,NaN,,,,0 / 0,317007,2018-08-11 08:43:43:945
-0.8578,-0.3314,9.8636,-0.8539,-0.3301,9.7638,-0.004,0.0043,-0.0004,0.0003,-0.0005,-0.0005,30,-41.45,-27.64,-42.13,123.34,1.93,4.99,5,24.099,,,,NaN,,,,0 / 0,317507,2018-08-11 08:43:44:445
-0.8626,-0.335,9.8564,-0.8543,-0.3333,9.7637,0,0.0016,-0.0005,0.0003,0.0007,-0.0005,30,-40.93,-27.94,-42.44,123.35,1.95,5,5,22.718,,,,NaN,,,,0 / 0,318007,2018-08-11 08:43:44:945
-0.8531,-0.341,9.8516,-0.8536,-0.3354,9.7637,0.0016,0.0042,-0.0009,0.0003,-0.0005,-0.0005,30,-40.2,-26.74,-43.01,123.02,1.96,5,5,22.77,,,,NaN,,,,0 / 0,318507,2018-08-11 08:43:45:445
-0.8686,-0.3362,9.8528,-0.8562,-0.3299,9.7636,0.003,0.0026,0.0044,-0.001,-0.0005,-0.0005,30,-40.92,-27.65,-41.84,123.33,1.93,5.01,5,23.215,,,,NaN,,,,0 / 0,319006,2018-08-11 08:43:45:944
-0.8399,-0.3422,9.8636,-0.8518,-0.3336,9.7639,0.0183,-0.0011,0.0058,0.0003,0.0007,-0.0005,30,-40.75,-27.66,-41.55,123.35,1.95,5,5,24.695,,,,NaN,,,,0 / 0,319507,2018-08-11 08:43:46:445
-0.8662,-0.335,9.8576,-0.8588,-0.332,9.7633,-0.0144,0.0055,-0.0032,0.0003,0.0007,-0.0005,30,-40.72,-26.76,-41.53,122.43,1.94,5.01,5,23.897,,,,NaN,,,,0 / 0,320006,2018-08-11 08:43:46:944
-0.8554,-0.3422,9.854,-0.8586,-0.3269,9.7635,-0.0022,0.0071,0.0015,-0.001,-0.0005,-0.0005,30,-40.4,-27.96,-41.55,123.91,1.91,5.03,5,27.427,,,,NaN,,,,0 / 0,320507,2018-08-11 08:43:47:445
-0.8674,-0.3278,9.8528,-0.8555,-0.3266,9.7638,0.0003,-0.0019,0.0012,0.0003,0.0007,-0.0005,30,-40.91,-27.04,-42.42,122.41,1.91,5.01,5,25.084,,,,NaN,,,,0 / 0,321007,2018-08-11 08:43:47:945
